time_tick,acc_X_value,acc_Y_value,acc_Z_value
0.023367,0.782184,-4.276646,-7.978663
0.056654,-0.687460,-4.112487,-9.377226
0.089933,-0.799393,-3.483538,-10.554467
0.123321,0.268310,-3.815147,-9.946467
0.156674,-1.091496,-4.154238,-7.936763
0.189912,-1.048548,-4.373914,-8.219887
0.223254,-0.117021,-4.093184,-9.212618
0.256646,-0.252747,-3.800482,-8.950594
0.290007,-0.411219,-4.121915,-8.370578
0.322905,-0.359442,-4.194492,-9.009403
0.355848,-0.221920,-3.916754,-9.662295
0.389917,-0.277288,-3.896104,-9.210224
0.423305,-0.169695,-4.100516,-8.719395
0.456586,-0.017658,-4.049039,-8.772518
0.489916,-0.217431,-3.863033,-8.800651
0.523255,-0.306618,-4.086150,-8.887295
0.556575,0.018406,-4.033626,-9.208428
0.590168,-0.019603,-4.015818,-9.024517
0.622982,-0.353008,-3.942643,-9.057289
0.656273,-0.189448,-4.137627,-8.900014
0.689909,-0.141413,-4.083157,-8.823547
0.723250,-0.368720,-4.024048,-8.890287
0.756582,-0.327419,-4.086899,-8.944309
0.789903,0.094874,-4.026742,-8.988304
0.823247,0.077216,-3.854353,-8.720892
0.856585,-0.083800,-3.886676,-8.677645
0.889913,0.616379,-3.997562,-8.727326
0.923270,0.494720,-3.808114,-8.559277
0.956585,0.350314,-4.064302,-8.883404
0.990016,0.584505,-3.905531,-9.343107
1.023322,-0.232545,-3.697079,-9.879427
1.056585,-0.047437,-3.717131,-9.853988
1.089979,-0.346573,-3.427123,-9.489607
1.123249,-0.076168,-4.033476,-8.348131
1.156604,0.102206,-3.497605,-7.465687
1.189919,-0.915665,-3.715185,-8.807535
1.223277,-1.414275,-5.182435,-9.848002
1.256578,0.310509,-4.103659,-9.284297
1.289936,1.552396,-3.192932,-7.792058
1.323268,0.511480,-3.722967,-7.772155
1.356667,-0.485442,-3.005579,-9.080633
1.389918,-0.995126,-3.789558,-10.155369
1.423263,0.392663,-3.298729,-9.897235
1.456594,0.346573,-3.230492,-10.209390
1.489943,-0.007333,-3.618366,-9.056690
1.523254,-0.129890,-3.240668,-9.151115
1.556651,-0.015114,-3.381631,-9.386354
1.589933,0.080508,-3.539654,-9.289535
1.623308,0.141712,-3.613279,-8.931439
1.656583,0.078862,-3.521398,-9.288038
1.689918,0.136325,-3.513018,-9.361962
1.723250,-0.089187,-3.514814,-9.125526
1.756586,-0.035615,-3.726858,-8.938472
1.789395,0.047586,-3.529329,-8.837763
1.823252,-0.013318,-3.558210,-9.201395
1.856654,-0.066591,-3.709499,-9.190920
1.889957,0.199474,-3.685406,-9.209925
1.923080,0.094874,-3.730898,-8.944159
1.956095,0.088589,-3.843579,-8.949247
1.989016,0.160417,-3.851061,-9.309288
2.023260,0.052824,-3.831907,-9.311981
2.056590,-0.012121,-3.979605,-8.901211
2.089915,0.175830,-3.828764,-8.712212
2.123260,-0.067788,-4.121167,-8.619733
2.156596,0.162063,-4.116677,-8.563467
2.189915,0.125251,-3.966137,-9.009553
2.223284,0.081106,-4.282332,-9.042025
2.256591,0.986895,-4.087048,-8.695153
2.289979,0.008829,-4.572789,-8.165567
2.322942,-0.270255,-4.636387,-8.236348
2.356581,-0.287464,-4.831073,-8.685127
2.389918,-0.140365,-4.577727,-9.163535
2.423265,-0.244517,-4.315852,-9.090360
2.456623,-0.204412,-4.275748,-8.856169
2.489968,-0.347621,-4.560070,-8.126061
2.523269,-0.734148,-4.628157,-8.215697
2.556583,-1.077579,-4.461754,-8.707424
2.589934,-0.635384,-4.337251,-8.969149
2.623247,-0.346124,-4.654943,-8.398860
2.656617,-0.427829,-5.070951,-8.337806
2.689921,-0.612040,-4.938367,-8.431781
2.723352,-0.665761,-4.875666,-8.315210
2.756601,-0.370217,-4.918913,-8.018168
2.789911,-0.609795,-5.258453,-7.543950
2.823266,-0.594681,-5.083969,-7.848024
2.856639,-0.726068,-4.876864,-8.562569
2.889913,-0.794155,-5.059278,-8.986059
2.922723,-1.286780,-5.343001,-9.014341
2.956579,-1.012634,-5.197100,-9.117894
2.989922,-0.889478,-4.989994,-9.387551
3.023250,-0.473470,-5.044913,-9.663792
3.056582,-0.134080,-4.743981,-10.809907
3.089914,-0.334602,-4.168155,-12.902065
3.122346,-0.262474,-3.665803,-11.598526
3.155700,0.339390,-3.849116,-9.663193
3.189084,0.384283,-3.828016,-8.318502
3.222431,0.898606,-3.485334,-8.002755
3.256575,0.892022,-3.188742,-8.717749
3.289929,0.133033,-3.069925,-9.466712
3.323246,0.192291,-2.967120,-9.200348
3.356601,0.657381,-2.984928,-8.035527
3.389925,0.632391,-3.399588,-6.869359
3.423235,0.160268,-4.390225,-6.591323
3.456581,0.104301,-4.281285,-7.360039
3.489977,0.148895,-4.136580,-8.583819
3.523319,-0.318440,-4.361493,-8.454527
3.556338,-0.170443,-4.644917,-7.845780
3.589281,0.249006,-4.830923,-7.812260
3.623269,-0.125251,-4.992238,-8.496727
3.656599,-0.275493,-5.056585,-9.216359
3.689921,0.303177,-5.086962,-9.728438
3.723252,-0.300483,-5.455533,-10.110027
3.756584,-0.611740,-5.258902,-10.220164
3.789977,-0.743875,-5.024262,-11.024645
3.823655,-1.098529,-3.860489,-11.946445
3.856619,-1.259844,-3.348111,-10.463783
3.889923,-0.703023,-3.493115,-9.016137
3.923322,-0.833960,-3.319529,-7.835604
3.956629,-0.980910,-3.348411,-7.807770
3.989692,-0.767818,-3.390161,-7.528088
4.023249,-0.098166,-3.586792,-6.707745
4.056129,-0.222519,-3.671490,-6.714479
4.089927,-0.630296,-3.768159,-7.342381
4.123260,-0.453717,-3.643806,-7.649598
4.156609,-0.352409,-3.746910,-7.699728
4.189921,-0.598871,-3.853007,-8.034928
4.223301,-0.539313,-3.957906,-8.341098
4.256603,-0.773055,-4.212449,-8.322991
4.289938,-1.478173,-4.197185,-9.007608
4.323246,-1.384048,-4.060112,-10.113020
4.356583,-0.771260,-3.180362,-11.668409
4.389965,0.314400,-1.780601,-10.887572
4.423264,0.700030,-1.547458,-8.946553
4.456599,-0.045043,-1.548655,-9.079735
4.489962,-0.260977,-1.833425,-9.623089
4.523307,0.558617,-1.747231,-9.809095
4.556605,1.095087,-1.618388,-9.655113
4.589925,-0.314549,-1.630809,-9.084973
4.623309,-1.434777,-1.448693,-8.624821
4.656587,0.076318,-0.694044,-8.973190
4.689986,0.037111,-0.157275,-9.547370
4.723269,-0.448330,-0.328616,-10.254582
4.756642,-0.477660,-0.739087,-10.895204
4.789941,-0.480204,-0.995275,-10.681514
4.823082,-0.495617,-1.079375,-10.751995
4.856560,-0.616828,-0.831865,-11.120416
4.889765,-0.522254,-0.899803,-11.194340
4.923293,-0.377400,-1.006648,-11.077020
4.955744,-0.163410,-0.526294,-11.939113
4.989709,-1.198191,-0.276391,-12.946210
5.023067,-1.134144,0.261576,-12.701244
5.056357,-0.176429,0.359891,-10.822328
5.089771,-0.116123,0.478409,-9.620096
5.123075,-0.798944,0.476762,-8.942214
5.156379,-0.710355,-0.253645,-8.491938
5.189743,-0.563256,-0.644213,-7.974473
5.222993,-0.552781,-1.215550,-7.684315
5.255978,-0.306918,-1.523964,-7.250650
5.289919,-0.306169,-1.677348,-8.097928
5.323251,-0.731006,-1.601479,-8.536681
5.356653,-0.819445,-1.716105,-9.019280
5.389918,-0.423340,-2.070161,-9.300459
5.423255,-0.559814,-2.191970,-9.543479
5.456576,-0.729509,-2.178203,-10.552821
5.489918,-1.114541,-2.190324,-11.974279
5.522338,-0.586151,-1.955085,-11.864740
5.555683,-0.038159,-2.364957,-11.773308
5.589941,-0.296143,-1.872931,-12.839664
5.623265,0.358245,-1.200286,-11.311211
5.656641,1.088204,-0.964598,-9.689082
5.689929,0.356449,-1.268523,-8.928446
5.723270,-0.545598,-1.237398,-8.747079
5.756600,-0.159968,-1.151802,-8.363694
5.789934,0.751806,-1.097781,-7.819143
5.822600,0.327269,-1.153747,-7.198724
5.856614,0.085446,-1.576788,-6.907369
5.889909,-0.095921,-2.092308,-7.939307
5.923322,-0.485591,-2.215015,-8.818160
5.956575,-0.532430,-2.373487,-8.999826
5.989914,-0.142759,-2.534353,-9.318865
6.023273,-0.959511,-2.419128,-10.313691
6.056639,-1.095237,-2.021826,-12.019920
6.089904,-0.404036,-2.032002,-12.494737
6.123225,-0.918808,-2.528966,-12.567164
6.156551,-2.093954,-2.248834,-13.361319
6.189998,-2.087220,-1.562272,-12.549806
6.223268,-0.778892,-1.172153,-10.682711
6.256660,-1.354568,-1.347834,-9.407902
6.289941,-1.955833,-1.388687,-8.736455
6.323255,-1.518577,-1.631557,-8.053185
6.356595,-0.798046,-1.763692,-7.448178
6.389914,-0.352409,-2.149621,-6.690985
6.423255,-0.013618,-2.694770,-6.513060
6.456622,-0.140066,-2.842468,-6.747999
6.489916,-0.465090,-3.031168,-7.761231
6.523325,-0.431870,-3.139808,-8.946553
6.556593,-0.188999,-3.279425,-9.288038
6.589987,-0.184061,-3.280772,-9.984926
6.623250,-0.216982,-3.146542,-11.019856
6.656600,-0.003143,-3.240668,-10.574668
6.689976,0.577173,-3.629141,-10.511070
6.723318,0.578370,-3.388515,-11.068640
6.756670,0.460152,-2.897686,-11.495272
6.789993,0.612040,-2.317221,-10.682262
6.823056,0.777844,-2.140942,-10.341225
6.855936,0.028881,-2.301209,-10.035056
6.889921,-0.259930,-2.211274,-9.113555
6.923304,0.279234,-2.471503,-7.635531
6.956604,0.174184,-2.567873,-6.572618
6.989938,0.313951,-2.778870,-6.234873
7.023289,0.788618,-2.811941,-6.249688
7.056595,0.414361,-2.823613,-7.634185
7.089941,0.133182,-2.815682,-8.509446
7.123322,-0.229103,-3.066034,-9.027809
7.156575,-0.532879,-3.452861,-9.404910
7.189965,-0.396554,-3.598165,-9.828100
7.222348,-0.057313,-3.692739,-10.764116
7.256575,-0.427829,-3.652485,-11.118621
7.289606,-1.228120,-3.881888,-11.661376
7.323253,-1.651759,-3.129184,-12.986763
7.355874,-0.943948,-2.069113,-11.920557
7.389091,0.120762,-1.830582,-10.263262
7.423253,-0.119714,-2.089913,-9.852192
7.456591,-1.434926,-1.875475,-9.064771
7.489922,-0.937962,-2.195561,-7.766170
7.523328,-0.138869,-2.625486,-6.531316
7.556578,-0.065095,-2.959489,-6.451706
7.589933,-0.492924,-2.831993,-7.176576
7.623269,-0.623263,-2.751784,-7.978962
7.655928,-0.654239,-2.807152,-8.289022
7.689936,-0.690004,-3.228397,-8.605218
7.723305,-0.515819,-3.293043,-9.560987
7.756651,-0.482898,-2.882273,-10.924833
7.789913,-0.607401,-3.069177,-11.657186
7.823251,-0.209799,-3.079353,-11.817004
7.856605,-0.677583,-2.766000,-12.819911
7.889917,-0.283274,-1.813972,-11.338296
7.923231,1.370879,-1.623327,-10.350803
7.956594,1.318953,-1.785091,-10.572873
7.989913,-0.723823,-1.587712,-10.282266
8.023241,0.068686,-1.540873,-9.294922
8.056589,0.383385,-1.871135,-6.394093
8.089972,0.257685,-1.849736,-6.052309
8.122591,-0.435012,-2.273376,-5.945763
8.156583,-0.212493,-2.309889,-7.042496
8.189635,-0.112831,-2.324105,-8.642928
8.223267,-0.295994,-2.406259,-9.283848
8.256586,-0.427081,-2.498888,-9.960833
8.289967,-0.731155,-2.260057,-11.237886
8.323348,-0.550237,-2.146927,-11.686216
8.356131,-0.325473,-2.742057,-11.567998
8.389460,-1.067253,-2.855337,-12.434132
8.422789,-1.922463,-1.953439,-13.646090
8.456133,-1.593997,-1.319851,-12.959678
8.489401,-0.818547,-1.484907,-10.987833
8.522443,-1.567211,-1.534439,-10.095362
8.556582,-1.578135,-1.471289,-9.357473
8.589921,-0.935268,-1.679443,-7.366174
8.622754,-0.552931,-2.042028,-6.151223
8.655909,-0.471226,-2.428705,-5.573302
8.689958,-0.458506,-2.695369,-5.860317
8.722362,-0.523750,-2.699708,-7.461796
8.755724,-0.689555,-2.916541,-8.242334
8.789122,-0.589593,-3.123946,-8.156588
8.822315,-0.401342,-3.475906,-8.925005
8.856584,-0.576275,-3.330304,-10.108830
8.889956,-0.740134,-3.034160,-11.470730
8.923322,0.579118,-3.316686,-11.501108
8.956582,0.279234,-3.332848,-12.217898
8.989918,-0.813309,-2.626982,-13.200603
9.023291,1.052140,-1.972144,-11.892424
9.056604,1.545512,-1.797960,-11.742332
9.089920,-0.074073,-1.599533,-11.233097
9.123402,-0.203365,-1.494185,-9.751333
9.156585,0.200671,-1.567660,-7.061202
9.189938,-0.269657,-1.950895,-5.435481
9.223300,-0.558019,-2.173713,-4.907840
9.256597,-0.703023,-2.119393,-5.948307
9.289993,-0.732053,-1.981871,-7.327267
9.323247,-0.478708,-2.135854,-8.547156
9.356583,-0.522404,-2.340565,-9.045018
9.389918,-0.968639,-2.474346,-9.865511
9.423261,-1.324639,-2.149471,-10.889218
9.456576,-0.864487,-2.273825,-11.342337
9.489917,-0.580166,-2.450403,-12.115243
9.523393,-1.977980,-2.071507,-14.471670
9.556760,-2.283851,-0.582710,-14.960853
9.589898,-1.367437,-0.664415,-13.081038
9.623248,-1.911838,-0.920903,-10.866921
9.656581,-2.480182,-1.331373,-8.158833
9.689928,-2.089315,-1.513938,-5.754819
9.723252,-0.519710,-1.524712,-4.544656
9.756650,0.673094,-1.597438,-4.275449
9.789961,0.857903,-1.608213,-4.583264
9.823160,0.967891,-1.787784,-6.582793
9.856423,0.181218,-1.258946,-9.579543
9.889921,0.286417,-1.392577,-11.279187
9.922759,0.466437,-1.363846,-11.976075
9.955897,-0.033819,-1.720744,-12.732819
9.990005,-0.772457,-1.857967,-13.294279
10.023317,-0.191543,-2.045021,-12.972697
10.056630,0.185857,-2.144982,-13.500787
10.089622,-0.463444,-1.185621,-13.449459
10.122477,0.243170,-0.790564,-12.263539
10.156619,0.597674,-0.734747,-11.774057
10.189921,-1.366539,-0.482299,-11.097970
10.223310,-1.017273,-0.553080,-9.247934
10.256603,-0.582410,-0.663666,-7.165952
10.289882,-0.338343,-0.987494,-5.090703
10.323210,-0.867929,-1.237697,-5.152656
10.355850,-0.653042,-1.122172,-5.268928
10.389152,-0.819295,-0.952627,-7.257084
10.423270,-0.544251,-1.298601,-8.996833
10.456586,-0.365877,-1.302193,-9.605281
10.489921,-1.228718,-1.306383,-10.613576
10.523342,-1.544764,-1.495831,-11.414764
10.556581,-0.842939,-1.469194,-12.221489
10.589468,-1.143871,-1.709521,-12.734615
10.622368,-1.815618,-1.510945,-13.021630
10.656504,-1.732117,-0.650797,-13.356082
10.689948,-1.632006,-0.564154,-11.927141
10.723252,-2.227585,-1.025204,-10.329853
10.756577,-1.832079,-1.576788,-9.172514
10.789967,-1.179635,-1.528154,-7.566396
10.823261,-0.260229,-1.794369,-5.710524
10.856374,0.179272,-2.197806,-5.799263
10.889921,0.403288,-2.067168,-6.497946
10.923252,-0.332357,-2.281007,-7.688206
10.956602,-0.723673,-2.723053,-8.201930
10.989910,-0.256937,-2.863418,-8.474579
11.023248,-0.597225,-2.452947,-10.212832
11.056554,-0.389371,-2.574158,-11.093481
11.089918,-0.063000,-2.136303,-12.128112
11.123247,-0.737440,-1.047201,-13.885968
11.156603,-0.634785,-0.941703,-12.530801
11.189970,0.946043,-1.340651,-10.325513
11.223251,1.166018,-1.314613,-9.830045
11.256726,-0.150092,-1.192205,-10.020541
11.289956,-0.438454,-0.749262,-9.224440
11.325251,-0.606653,-0.979862,-7.588543
11.356614,-0.542156,-1.200286,-6.920238
11.389917,-0.669951,-1.923361,-6.283358
11.423323,-0.243768,-1.939223,-6.418934
11.456068,-0.044294,-1.715956,-7.766020
11.489941,-0.165954,-1.825045,-8.932038
11.523251,-0.285668,-2.138996,-9.436933
11.556609,-0.577023,-1.975586,-10.915555
11.590020,-0.382188,-1.652208,-11.972483
11.623429,-0.610543,-2.453995,-12.292719
11.656684,-0.000449,-2.534652,-12.966561
11.689815,-0.408675,-1.747680,-13.895844
11.722735,-1.545662,-1.714759,-12.863457
11.755711,-0.875411,-1.971097,-10.285409
11.789916,-0.446684,-2.029607,-9.137198
11.823304,-1.208367,-2.129868,-8.524710
11.856655,-1.401855,-2.126127,-7.169992
11.889937,-0.232844,-2.475244,-6.610776
11.922396,-0.201120,-2.795330,-5.736113
11.956617,-0.083800,-3.140257,-6.613919
11.989983,-0.327419,-2.995253,-7.524197
12.023261,-0.356300,-3.300076,-8.333466
12.056574,0.088140,-3.588288,-8.545660
12.089939,0.183762,-3.925733,-8.979475
12.123334,0.149942,-3.808712,-9.930605
12.156638,0.180020,-3.869018,-11.054274
12.189998,0.518214,-3.791054,-12.285536
12.223326,0.348668,-3.073217,-13.210330
12.256632,1.055881,-1.860211,-11.308966
12.289913,1.804395,-2.075398,-10.222708
12.322494,0.657830,-2.152763,-9.786200
12.356664,-0.178225,-1.911240,-9.601840
12.390011,1.227222,-4.037217,-9.175058
12.423320,1.194300,-5.543523,-8.210011
12.456688,-0.370366,-3.890567,-8.817711
12.489987,-0.420946,-0.673393,-7.878701
12.523338,0.240177,-0.481551,-6.571121
12.556665,2.080935,-1.539826,-5.931098
12.589998,2.372439,-1.393176,-6.869659
12.622867,1.300098,-1.491491,-8.498223
12.656677,-0.310808,-1.808285,-10.625996
12.689993,-0.335350,-2.612766,-11.488239
12.722613,-0.275642,-3.404826,-11.117723
12.756680,-0.394608,-3.019495,-11.876712
12.790274,-1.049745,-2.222198,-12.334619
12.822369,-0.420946,-2.124182,-11.663770
12.856687,-0.262324,-2.015990,-11.185511
12.889988,-0.321882,-1.813373,-10.188590
12.923382,-0.034418,-1.736756,-9.220549
12.956706,-0.007931,-1.874428,-8.397962
12.989922,0.269657,-2.517743,-7.156524
13.023333,0.451024,-2.664542,-6.519943
13.056719,0.487686,-2.523279,-6.563789
13.089956,-0.265766,-2.544379,-7.530931
13.123346,-0.686412,-2.608875,-8.520819
13.156691,-0.654688,-2.496493,-9.354480
13.190008,-0.885138,-2.571015,-10.593224
13.223350,-0.770661,-2.359121,-11.342038
13.256710,0.169396,-2.834836,-11.270359
13.289990,1.641284,-3.019645,-11.833914
13.323056,0.424986,-1.838663,-14.130933
13.356119,0.303027,-1.535037,-12.351529
13.389043,1.726281,-1.736457,-10.476952
13.423375,1.470990,-1.936679,-9.952453
13.456657,0.127496,-1.672260,-10.051517
13.489981,-0.058211,-1.278549,-9.372138
13.523313,0.020202,-1.393026,-7.357794
13.556643,-0.030976,-1.634400,-6.098998
13.589917,-0.216084,-1.966608,-5.369488
13.623280,-0.103703,-2.205138,-5.811833
13.656646,-0.008230,-2.349544,-6.949867
13.689978,-0.133930,-2.409251,-8.528152
13.723745,-0.667258,-2.023173,-10.432208
13.756664,-0.455962,-1.671362,-11.427933
13.789986,0.563106,-1.898520,-11.601069
13.823360,0.214438,-3.026978,-11.702976
13.856667,-0.761533,-3.321924,-12.253213
13.890032,-1.266279,-2.717516,-12.673112
13.923282,-0.541259,-2.196459,-11.734701
13.956658,-0.483197,-2.228932,-11.037065
13.990020,-1.022959,-1.811727,-10.020990
14.023306,-1.031040,-1.676749,-8.951791
14.056674,-1.168113,-1.737055,-8.696051
14.089999,-0.721429,-2.146628,-7.514021
14.123275,-0.012121,-2.610820,-6.712833
14.156602,0.290607,-2.780665,-6.960342
14.189929,0.186305,-2.664393,-7.900998
14.223240,-0.127645,-2.726195,-8.632004
14.256581,-0.422592,-3.017101,-8.645771
14.289920,-0.543204,-3.077706,-9.188975
14.323236,-1.005601,-2.742955,-10.427420
14.356598,-0.011373,-2.525823,-10.672984
14.389921,0.887383,-2.862969,-10.631682
14.423249,1.192205,-3.310551,-11.249857
14.456587,-0.502202,-2.055196,-12.928103
14.489917,0.247958,-1.574393,-11.223071
14.523239,1.530548,-1.752169,-10.375793
14.556614,0.025739,-1.821304,-10.840734
14.589937,-0.697486,-1.355615,-10.813948
14.623278,-0.240626,-1.225875,-9.780513
14.656581,-0.188101,-1.487002,-7.455661
14.689938,-0.425285,-1.795416,-6.590126
14.723272,-0.753452,-2.135255,-6.162596
14.756424,-0.324725,-2.011500,-6.763412
14.789916,-0.071230,-2.256915,-7.111332
14.823304,-0.300034,-2.791739,-7.306167
14.856504,-0.372162,-3.214630,-8.004252
14.889431,-0.573731,-3.090127,-9.973253
14.922421,-0.493522,-2.884667,-11.324829
14.956573,-0.430523,-2.854140,-11.684869
14.989948,-0.552631,-3.547136,-11.164411
15.023243,-1.060968,-4.060412,-10.827266
15.056579,-0.896062,-3.815745,-10.837591
15.089919,-0.930330,-2.166980,-12.670867
15.123253,-0.476014,-1.284685,-12.220591
15.156586,0.390119,-1.484458,-10.381180
15.189989,-0.020950,-1.836269,-9.085572
15.223260,-1.001111,-2.012847,-8.218540
15.256602,-1.199987,-2.335029,-7.228951
15.289919,-0.212643,-2.505771,-6.495252
15.323265,0.052525,-2.487664,-6.793341
15.356581,-0.902347,-2.397130,-8.261338
15.389942,-1.513638,-2.587476,-9.485417
15.423282,-1.326884,-2.237611,-10.051666
15.456648,-1.342746,-2.424964,-10.592775
15.490003,-1.464855,-2.166680,-11.186558
15.523315,-1.805592,-2.559343,-10.790454
15.556703,-0.498610,-3.110179,-10.845821
15.590030,0.387725,-3.113022,-12.246629
15.623298,-0.709756,-1.834922,-13.576805
15.656579,-0.288512,-1.058873,-11.819099
15.689600,1.291119,-1.450938,-9.830644
15.723303,0.681773,-2.022724,-9.131512
15.756599,-0.475116,-1.726580,-9.182989
15.789930,0.027684,-1.226025,-8.746331
15.823301,-0.160717,-1.263585,-7.829169
15.856458,-0.252448,-1.591004,-6.712384
15.889913,-0.345526,-1.900465,-6.091515
15.923243,-0.402091,-2.078690,-6.634270
15.956169,-0.327568,-2.127474,-7.554575
15.989981,-0.550536,-2.040082,-9.543329
16.023276,-0.530784,-2.101735,-10.325513
16.056611,-0.585254,-2.278912,-10.396893
16.089935,-0.474518,-2.535999,-10.958203
16.123277,-0.389970,-2.467762,-11.429429
16.156674,-0.937962,-2.193766,-12.990953
16.189974,-1.222284,-1.686775,-13.747548
16.223263,-1.406045,-1.272414,-12.716807
16.256587,-1.915879,-1.479071,-10.943838
16.289914,-1.914382,-1.085360,-9.212469
16.323266,-1.737804,-0.798794,-8.923508
16.356579,-1.437470,-0.490081,-8.254904
16.389913,-1.101971,-0.919855,-6.758624
16.423252,-1.050643,-1.561674,-6.077150
16.456706,-0.703920,-1.974688,-6.074755
16.489980,-0.638078,-2.280858,-7.301079
16.523386,-0.461648,-2.343409,-8.657742
16.556510,-0.567895,-2.338620,-9.749238
16.589522,-0.729958,-2.282803,-10.467973
16.622439,-1.040767,-2.150220,-10.944735
16.656586,-1.231711,-2.055795,-11.676938
16.689916,-0.804480,-1.942066,-11.813413
16.723245,-0.703771,-1.717602,-12.438621
16.756637,-1.009192,-1.513788,-12.713515
16.789903,-0.508936,-1.298302,-11.169798
16.823267,0.077216,-1.656547,-9.376627
16.856603,0.373509,-1.777309,-8.929644
16.889938,-0.447732,-1.956432,-9.326197
16.923322,-0.418851,-1.396169,-9.687435
16.956583,-0.423938,-1.249519,-9.442470
16.990016,-0.133631,-1.199089,-8.702037
17.023247,-0.001197,-1.702338,-7.739683
17.056602,-0.180320,-2.078690,-7.536318
17.089946,-0.310958,-2.316024,-8.283036
17.123258,-0.651246,-1.891038,-8.758452
17.156587,-0.240027,-1.791825,-8.989052
17.189936,-0.507290,-1.641433,-9.168324
17.223322,-1.214652,-1.960622,-10.803772
17.256612,-0.811514,-1.686476,-10.778931
17.289977,-0.386977,-1.772820,-10.673283
17.323254,-1.389584,-2.337124,-11.038861
17.356642,-2.006862,-1.690217,-14.688203
17.389937,-2.233122,-0.417354,-13.113062
17.423251,-1.582474,-0.228954,-9.270381
17.456641,-0.953824,-0.775150,-8.156887
17.489920,-1.307430,-1.079375,-9.089013
17.523250,-2.024669,-1.547607,-8.672557
17.556654,-1.489546,-1.493886,-7.742676
17.589915,-0.825430,-1.929646,-7.503995
17.623265,-1.019966,-2.151417,-7.789514
17.656584,-1.112595,-2.079738,-8.378209
17.689968,-1.357710,-1.880713,-8.671958
17.722950,-1.527705,-2.169374,-9.481227
17.756600,-0.855060,-2.009705,-9.501878
17.789918,-0.763029,-2.097844,-9.154258
17.823429,-0.630146,-1.969900,-9.568170
17.856584,-0.623113,-1.904356,-10.453458
17.889915,-0.297640,-1.895078,-10.565241
17.923237,0.178823,-2.312582,-10.655027
17.956588,-0.096220,-1.858416,-10.793596
17.989994,0.178973,-1.407242,-10.459743
18.023279,0.351511,-1.284236,-10.577961
18.056591,-0.380991,-1.481914,-10.836244
18.089988,-0.717239,-1.776561,-9.371390
18.123034,-0.254393,-2.057291,-7.492323
18.155847,0.481102,-2.146478,-7.115821
18.189923,0.134978,-2.229680,-7.457157
18.223357,-0.133182,-2.532557,-8.824894
18.256599,-0.486340,-2.527918,-9.684443
18.289924,-0.529886,-2.443220,-9.513101
18.323259,-0.235987,-2.575954,-8.821302
18.356583,-0.065544,-2.978344,-9.051154
18.389924,-0.252448,-2.906515,-9.774378
18.422625,0.077964,-2.628179,-10.718326
18.456603,0.124204,-2.338021,-10.820981
18.489939,-0.046539,-2.452648,-12.658596
18.523247,-1.240241,-1.427743,-12.895032
18.556702,-0.897109,-1.319701,-10.440588
18.589942,-0.299585,-1.525011,-9.657357
18.623302,-0.699132,-1.832378,-9.826005
18.656626,-1.438667,-1.426845,-9.438729
18.689907,-0.905489,-1.393774,-8.423551
18.723247,-0.331609,-2.008059,-7.632090
18.755805,-0.087840,-2.651972,-7.246609
18.789982,-0.518214,-2.553807,-7.948435
18.823249,-0.729210,-2.478686,-7.729956
18.856605,-0.169396,-2.726046,-8.389283
18.889916,-0.140664,-2.581042,-9.059234
18.923274,0.041900,-2.741908,-8.675550
18.956600,0.155479,-2.679956,-10.331948
18.989948,0.434563,-2.630723,-10.041790
19.023284,-0.364979,-2.728290,-10.829810
19.056591,0.097567,-2.740411,-11.652547
19.089915,0.818697,-1.729573,-12.645428
19.123325,0.693894,-1.627816,-10.373249
19.156587,1.356663,-2.029458,-9.865810
19.189915,0.298837,-2.128521,-10.488474
19.222378,-0.455663,-1.949249,-10.796140
19.256589,-0.269357,-1.610607,-9.724547
19.289783,-0.181667,-1.947753,-7.378744
19.323307,-0.450126,-2.625186,-6.599853
19.356631,-0.685963,-2.944973,-6.733334
19.389923,-0.025439,-2.269934,-7.675037
19.423281,0.206507,-2.556201,-8.598933
19.456608,-0.269806,-2.804010,-8.856468
19.489906,-0.061803,-2.708837,-9.567272
19.523249,-0.124204,-2.589721,-10.535462
19.556577,-0.258882,-3.067980,-10.763817
19.589989,-0.463145,-3.377441,-10.504636
19.623248,-1.203129,-2.460878,-13.821172
19.656605,-1.014430,-1.539377,-12.682838
19.690060,-0.956817,-2.121338,-11.122362
19.723443,0.071829,-1.965410,-9.095747
19.756591,-1.945957,-1.973342,-8.299796
19.789951,-1.990999,-2.224592,-8.813670
19.822854,0.310808,-2.037089,-7.408822
19.855854,0.748364,-2.039783,-7.244215
19.889977,-0.540510,-2.940185,-6.395740
19.923249,-0.679080,-3.010367,-8.479967
19.956648,-0.162961,-2.591517,-9.832439
19.989921,-0.639873,-3.319978,-9.648528
20.023243,-0.523750,-3.460493,-8.999676
20.056621,-0.720980,-3.794347,-9.506367
20.089951,-0.704669,-3.478001,-10.258174
20.123315,-0.528090,-3.679271,-10.542196
20.156584,-0.178674,-3.807515,-11.316748
20.189940,0.231198,-2.982534,-12.760054
20.223254,-0.009876,-2.054448,-12.222237
20.256577,0.506242,-2.561887,-8.902259
20.289922,1.344243,-2.489610,-8.544762
20.323259,1.121125,-2.111163,-8.992643
20.356590,0.236436,-1.850784,-8.874575
20.389992,0.376053,-1.857219,-8.133393
20.423273,-0.099513,-2.380819,-6.917844
20.456604,0.060007,-2.524776,-6.735579
20.489935,0.145453,-2.832292,-7.961154
20.523265,0.106845,-2.908460,-8.351872
20.556594,0.225362,-3.267603,-8.179483
20.589914,0.182864,-3.739428,-8.987555
20.623271,-0.131087,-3.619115,-10.320724
20.656720,-0.413314,-3.395997,-10.596067
20.689954,0.077814,-3.982747,-10.734637
20.723324,-0.256488,-4.413419,-11.335004
20.756582,-0.843238,-2.906814,-13.398281
20.789933,-1.140130,-2.213219,-12.843106
20.823274,-0.444739,-2.642694,-10.486978
20.856598,-0.535422,-2.564282,-9.615008
20.889936,-1.205973,-1.943413,-9.760910
20.923255,-0.695540,-2.013595,-8.543864
20.956605,0.521506,-2.020030,-6.963784
20.989948,-0.088289,-2.700008,-6.152719
21.023278,-0.184061,-2.912201,-6.361022
21.056596,-0.132584,-2.894693,-6.810251
21.089994,-0.066142,-2.966522,-8.197890
21.123277,-0.461798,-3.310850,-8.976033
21.156594,-0.256787,-3.620312,-9.279808
21.189936,0.205310,-3.808413,-10.015004
21.223275,-0.265317,-3.546239,-11.034521
21.256574,-0.450725,-3.529628,-11.339194
21.289919,0.247659,-3.492666,-11.410275
21.323339,0.243469,-2.773931,-13.012352
21.356659,0.162512,-2.432147,-12.204131
21.389549,1.170208,-2.277266,-9.086170
21.422368,1.397815,-2.193915,-9.801463
21.456574,0.557869,-1.679293,-10.535612
21.489919,0.324725,-1.478472,-8.871732
21.523271,0.039356,-1.719547,-6.910212
21.556585,-0.287015,-2.075847,-5.916583
21.589399,-0.336248,-2.297468,-5.912692
21.623255,-0.038309,-2.458783,-7.036660
21.656606,0.187353,-2.415686,-9.013743
21.689917,-0.067788,-2.977745,-9.284896
21.723322,0.034418,-3.127687,-9.232671
21.756651,-0.152935,-2.997348,-9.963078
21.789968,-0.413463,-2.979840,-11.262427
21.823266,-0.391167,-3.084590,-11.095426
21.856597,-0.435760,-2.670079,-12.478725
21.889996,-0.754350,-1.135491,-13.760567
21.923275,-0.480204,-0.678481,-11.671851
21.956575,-0.114926,-0.946492,-9.373185
21.989659,-0.099961,0.012720,-10.243808
22.023270,-0.533028,0.190645,-10.648742
22.056622,-0.668156,-0.742678,-9.037985
22.089982,0.311706,-0.777096,-6.919041
22.123265,0.421245,-1.406644,-6.216767
22.156587,0.131835,-1.816815,-7.212491
22.189938,0.176130,-1.779105,-8.042710
22.223325,0.212792,-1.614647,-9.193913
22.256644,0.149344,-1.808884,-9.665288
22.289725,0.205759,-1.969750,-10.017249
22.322894,0.102056,-1.581726,-11.389025
22.356574,0.073774,-0.918957,-12.118684
22.389970,0.379046,-1.067253,-13.365061
22.423251,0.585553,0.225512,-13.529817
22.456578,0.879003,-0.075570,-11.975626
22.489918,1.581277,-0.648403,-10.337933
22.523255,1.609709,-0.020202,-10.377289
22.556589,0.837252,0.118517,-10.013657
22.589947,0.106396,-0.517316,-8.316856
22.623272,-0.004190,-1.338107,-5.893538
22.656584,-0.028133,-1.415473,-5.398220
22.689916,-0.182115,-1.600282,-5.783251
22.723360,-0.194386,-1.569455,-6.743061
22.756641,-0.058361,-1.476976,-8.786884
22.789913,-0.253346,-1.763841,-9.035291
22.823257,-0.444290,-1.598486,-9.774677
22.856602,-0.442345,-1.417717,-10.971222
22.889924,-0.208004,-1.954038,-11.215140
22.923231,0.064945,-2.305998,-11.826581
22.956474,-0.841293,-1.598935,-14.278331
22.989444,-1.246226,-1.025054,-14.287759
23.022384,-1.278849,-1.053337,-11.959165
23.056189,-0.889178,-1.086408,-9.737416
23.089913,-0.912523,-0.489781,-8.368483
23.122678,-1.513040,-0.801787,-8.423401
23.156584,-0.113729,-0.248108,-8.187115
23.189918,0.773055,-0.465539,-7.224313
23.223281,1.695305,-0.509085,-6.995658
23.256607,2.527170,-0.676685,-6.959594
23.289935,2.900529,-0.605904,-7.504594
23.323262,2.713326,-0.511180,-9.079436
23.356582,3.390909,0.070931,-10.629737
23.389910,3.726708,0.483646,-11.767472
23.423323,2.690431,0.318291,-12.340306
23.456585,1.949997,-0.395057,-11.398303
23.489915,1.530847,-1.169310,-12.464509
23.523321,0.852965,-0.686711,-12.814524
23.556666,0.672046,-0.476912,-11.302681
23.589915,0.415558,-0.701227,-10.553120
23.623245,-0.069285,-0.820642,-10.230190
23.656584,-0.301381,-0.643465,-9.575054
23.689914,-0.082154,-0.873765,-7.678030
23.723226,-0.493672,-1.171405,-6.472357
23.756588,-1.107956,-1.451237,-6.095257
23.789905,-1.085360,-1.327782,-6.421328
23.823256,-0.833062,-1.167514,-7.768265
23.856586,-1.177690,-0.810317,-9.130464
23.889915,-1.362349,-0.787272,-10.199813
23.923254,-1.010090,-1.007546,-10.796290
23.956583,-0.877506,-1.949548,-10.668046
23.989970,-0.387875,-2.533156,-11.391869
24.023240,-0.942451,-2.580892,-13.003972
24.056587,-1.974988,-1.800803,-14.638372
24.089935,-1.366090,-1.431036,-13.112164
24.123259,-0.776348,-1.856321,-10.831905
24.156615,-0.872418,-1.848689,-9.019280
24.189927,-1.236649,-1.589657,-8.194298
24.223250,-0.824233,-1.676001,-6.936998
24.256673,-0.260079,-1.779404,-6.527425
24.289789,0.588097,-1.674654,-6.193722
24.322782,1.081470,-1.786886,-6.879834
24.356574,0.914767,-1.374470,-8.656844
24.389932,0.957715,-1.287229,-10.069923
24.423260,0.748065,-1.377613,-10.258623
24.456733,0.275493,-1.568108,-11.055022
24.489915,-0.372761,-1.843601,-12.240045
24.523262,-0.154132,-1.710718,-12.783398
24.556677,-0.473171,-1.442259,-13.531463
24.589991,-0.085895,-1.537132,-9.737267
24.623329,0.414810,-1.731967,-9.324551
24.656130,0.621168,-1.675402,-10.326560
24.688993,-0.619821,-1.125764,-10.694981
24.723253,-0.789815,-1.260891,-9.750884
24.755921,-0.780987,-1.387639,-7.721426
24.789908,-0.820043,-1.656547,-6.510965
24.823216,-1.021912,-1.501966,-6.303559
24.856623,-0.451922,-1.642182,-6.045126
24.889914,-0.562508,-1.993543,-7.179719
24.923309,-1.118282,-2.087519,-8.014876
24.956601,-0.854761,-1.989503,-9.066118
24.989916,-0.371264,-1.603723,-11.218432
25.023328,-0.363483,-1.615246,-12.411236
25.056605,-0.819295,-1.749625,-12.894583
25.089929,-0.354803,-1.961669,-13.817431
25.123259,-1.233208,-1.575142,-13.616161
25.156592,-1.573645,-1.549702,-12.138288
25.190034,-1.616593,-1.347834,-10.080547
25.223247,-1.586515,-1.223930,-10.181257
25.256604,-1.945658,-1.173500,-9.215013
25.289991,-1.697400,-1.695155,-7.597672
25.323260,-1.139381,-2.151566,-5.982276
25.356615,-0.548741,-2.414639,-5.591109
25.389942,0.339839,-2.730385,-6.721961
25.423252,-0.038608,-2.458933,-8.649961
25.456581,-0.295844,-2.512804,-9.981185
25.489913,-0.277139,-2.429154,-10.727005
25.522318,-0.573581,-2.100089,-10.965835
25.555714,-0.382936,-2.056393,-10.972569
25.589095,-0.223118,-2.940634,-10.340627
25.622477,0.149044,-3.424878,-10.262663
25.655777,-0.228804,-2.976997,-11.135081
25.689127,-0.456561,-2.358971,-10.745112
25.723253,0.603510,-2.315725,-10.466626
25.755783,-0.470028,-2.347599,-10.848216
25.789110,-1.597139,-2.019581,-10.817389
25.822471,-0.922399,-1.764141,-8.659239
25.856576,-0.753602,-1.776112,-6.330795
25.889136,-0.917760,-2.220402,-5.311876
25.922502,-1.104215,-2.697913,-5.293919
25.955752,-0.938710,-2.950360,-6.562143
25.989131,-0.685963,-3.076060,-8.109151
26.022565,-0.630146,-3.289152,-9.139892
26.055807,-1.018620,-3.192782,-10.216573
26.089117,-0.752405,-2.797725,-11.251653
26.122469,-0.607999,-2.978044,-11.271406
26.155821,0.002245,-3.560455,-11.329767
26.189067,-0.520309,-3.766064,-11.784981
26.222453,-1.233507,-2.868655,-13.912454
26.255908,-1.827589,-1.450938,-14.600363
26.289125,-2.212022,-1.393176,-11.623965
26.322462,-1.498674,-1.685129,-7.982404
26.355804,-0.508337,-1.844798,-6.296526
26.389909,-0.479007,-1.965111,-5.734617
26.423252,-0.077964,-2.237910,-6.350996
26.456630,0.346274,-2.518042,-6.830303
26.489931,0.019603,-2.790542,-7.169693
26.523284,-0.147847,-2.879729,-7.742376
26.556488,0.160417,-2.908311,-9.015838
26.589731,-0.151738,-2.925220,-10.108980
26.622940,-0.714994,-2.983880,-11.451277
26.656169,0.236735,-2.070609,-11.829275
26.689916,1.462760,-2.219055,-11.788273
26.723250,0.043396,-0.369917,-9.644338
26.756633,-1.352623,-5.312624,-11.615585
26.789918,-1.527555,-2.688635,-7.830067
26.822600,0.236286,-5.513594,-9.509510
26.856641,1.296656,-6.372844,-8.510643
26.889914,2.356577,-5.808990,-7.834108
26.923287,0.569242,-2.943327,-6.789001
26.956656,0.068985,-2.354632,-6.981891
26.989947,1.881461,-3.352601,-6.584439
27.023270,1.078626,-3.889071,-7.326968
27.056598,0.809269,-3.530227,-8.880860
27.089923,2.197058,-4.492581,-9.155754
27.123269,0.990487,-3.677475,-10.000040
27.156600,1.498225,-3.717280,-10.075909
27.189915,1.383000,-3.530227,-10.797337
27.223277,2.131215,-3.907028,-10.990676
27.256588,1.734811,-3.679421,-12.750028
27.289917,0.957565,-3.379536,-12.663684
27.323268,0.626256,-3.514065,-10.433406
27.356600,-0.515370,-2.901277,-9.397427
27.390118,-0.062102,-2.445615,-9.506068
27.423420,-0.119415,-2.777972,-9.600942
27.456587,0.495617,-3.256979,-7.765122
27.489955,1.045705,-3.290499,-5.948906
27.523292,0.697037,-3.028175,-6.334985
27.556639,0.845632,-3.580806,-6.570074
27.589347,1.232759,-4.080015,-6.420730
27.623318,1.656547,-4.831372,-7.591536
27.656584,0.784578,-4.460108,-8.349927
27.689923,0.217282,-4.407284,-9.469406
27.723303,0.548890,-4.203171,-10.620609
27.756582,-0.626854,-3.701568,-11.399351
27.789610,-0.099812,-3.089828,-12.977485
27.823325,1.007845,-2.817028,-12.958181
27.856692,0.346573,-2.494249,-10.927975
27.889982,-0.200222,-2.794732,-9.462522
27.922643,0.073026,-3.520949,-8.900613
27.956654,0.467335,-3.017700,-8.803943
27.989916,0.321732,-2.297319,-7.228203
28.023253,0.282676,-3.196673,-6.291887
28.056574,0.606204,-3.377741,-5.944267
28.089192,0.503100,-3.438196,-6.642201
28.122770,0.018107,-3.582003,-7.340884
28.156603,0.263671,-3.563148,-7.758987
28.189912,0.236286,-3.423232,-9.631319
28.223283,-0.431720,-3.347363,-9.987918
28.256586,0.082154,-3.368163,-9.713773
28.289910,1.000064,-3.931719,-12.537685
28.323279,-0.066441,-4.022253,-15.356658
28.356605,-2.681153,-3.443434,-15.486249
28.389918,-1.238595,-3.670891,-11.449481
28.423253,-0.621168,-3.589485,-9.192866
28.456609,-0.796100,-3.309204,-8.870086
28.489933,-1.012335,-2.954401,-6.561843
28.523246,-0.149643,-2.991961,-5.594551
28.555671,0.309162,-3.202359,-5.463763
28.589909,-0.079610,-3.204604,-5.982126
28.623254,-0.394608,-3.224506,-6.410704
28.656602,0.033520,-3.654430,-7.277585
28.690024,0.307666,-3.616870,-7.775896
28.723243,-0.207555,-3.436999,-9.848601
28.756582,-0.062700,-2.953503,-11.314054
28.789373,0.326970,-2.882273,-12.923763
28.823249,-0.220574,-2.176108,-13.723156
28.856590,-0.316196,-1.733314,-13.631126
28.889915,0.463295,-2.141690,-11.772710
28.923247,1.162127,-2.184787,-9.702250
28.956561,0.746569,-2.103381,-9.672621
28.989076,0.288811,-1.741844,-9.831691
29.022439,0.420646,-1.773419,-7.728460
29.056564,0.558767,-2.179998,-6.409058
29.089882,0.345526,-2.246590,-6.574862
29.123168,0.097717,-2.407905,-7.283122
29.156553,0.221172,-2.464769,-8.857815
29.189861,0.398649,-2.494548,-10.018595
29.223314,0.131835,-2.271580,-9.767494
29.256577,0.672046,-2.402218,-9.898582
29.289922,0.993180,-2.720060,-10.667597
29.323194,0.198277,-3.320278,-11.191946
29.356579,-0.073924,-3.391358,-10.895952
29.389934,0.176130,-3.602804,-10.220613
29.423235,0.286117,-2.647782,-9.905316
29.456559,-0.033071,-2.279661,-10.307406
29.489587,-0.026936,-1.832827,-10.330002
29.523300,0.182864,-1.774765,-10.058101
29.556232,-0.141413,-1.857967,-8.810228
29.589240,-0.290756,-2.374983,-7.627002
29.623258,-0.167899,-2.686540,-6.871903
29.656586,0.646906,-2.951857,-6.646990
29.689925,0.599919,-2.948714,-7.239277
29.722338,0.090833,-3.159561,-8.004102
29.755678,-0.190645,-3.115267,-9.033795
29.789089,-0.122558,-3.170335,-9.477337
29.822482,0.025888,-3.007524,-10.045531
29.855894,0.050729,-2.626683,-11.197333
29.889357,0.357946,-2.586878,-12.051195
29.922613,-0.230450,-2.047714,-14.246009
29.955912,-1.462012,-1.749326,-15.588605
29.989408,-0.757193,-1.565565,-12.668622
30.022497,0.294048,-2.200500,-10.335389
30.056086,1.169160,-1.828936,-9.015090
30.089675,0.834708,-1.226324,-8.423850
30.122863,0.767519,-1.318953,-7.479304
30.156320,0.810466,-1.257150,-6.161548
30.189801,0.851618,-1.401107,-6.046623
30.222992,0.214289,-1.330176,-6.468616
30.256435,-0.215785,-1.720894,-7.715890
30.289734,0.089337,-1.878917,-9.251376
30.323149,0.513724,-1.739300,-9.448156
30.356502,0.618175,-1.721792,-10.189637
30.389811,0.468382,-2.071208,-10.647844
30.423129,0.323378,-2.585680,-10.582300
30.456505,0.079909,-2.612616,-11.017911
30.489917,0.030078,-2.840223,-11.576528
30.523253,-0.498311,-2.663196,-14.450570
30.556597,-0.488884,-2.361665,-13.961537
30.589923,-1.052439,-2.068963,-10.384323
30.623226,-1.821604,-2.187331,-8.221683
30.656570,-1.898370,-2.194215,-7.350611
30.689938,-1.410235,-2.152165,-6.356234
30.723262,-0.498461,-1.994740,-6.010708
30.756607,0.272799,-1.832378,-6.290092
30.789916,0.520458,-2.140193,-7.703469
30.823322,0.029480,-2.554555,-8.803495
30.856598,0.127496,-2.769442,-9.201395
30.889914,0.088888,-3.195625,-9.994652
30.923316,-0.622664,-3.038949,-11.414914
30.955732,-1.150006,-2.609773,-12.289876
30.989088,-0.593634,-2.869852,-11.682326
31.023243,0.262773,-2.940334,-11.824786
31.056427,0.013917,-2.690131,-12.315764
31.089660,-0.383984,-2.035743,-11.107248
31.123393,0.323079,-1.596391,-9.795328
31.156304,-0.030976,-1.487152,-10.748254
31.189263,-0.613237,-1.380905,-10.507479
31.223250,-0.908183,-1.238445,-8.611503
31.256574,-0.605755,-1.611206,-6.677368
31.289933,-0.150690,-1.743191,-5.603679
31.323323,-0.472123,-1.591902,-5.378317
31.356577,-0.285668,-1.691115,-6.767153
31.389931,0.066741,-1.938475,-8.649811
31.423326,-0.515819,-2.145880,-10.102545
31.456577,-0.068237,-2.219654,-10.694233
31.489935,0.020501,-2.064025,-11.550041
31.523270,-0.559515,-2.837978,-11.585507
31.556589,-0.244816,-2.570118,-11.180273
31.589942,0.115674,-2.054149,-11.341888
31.623236,-0.658130,-2.219953,-13.048416
31.656594,-1.837166,-1.327782,-11.026889
31.689924,-2.289537,-1.249369,-10.085336
31.723261,-2.169972,-1.540574,-10.339130
31.756586,-1.624225,-1.706229,-9.009403
31.789926,-1.200136,-1.883855,-6.481635
31.823352,-0.627603,-2.110115,-6.053057
31.856590,-0.108940,-2.366603,-6.563639
31.889915,-1.023408,-2.320663,-8.652804
31.923306,-0.968040,-2.413292,-9.927014
31.956587,-0.631344,-2.931356,-10.065882
31.989959,-0.788918,-2.565628,-10.590082
32.023272,-1.144170,-2.020629,-11.793810
32.056198,-0.615930,-1.609709,-12.357814
32.089950,-0.213690,-1.668070,-13.382569
32.123104,-0.188400,-1.520821,-12.395823
32.156324,-0.176130,-1.100025,-9.810741
32.189552,0.823485,-0.688806,-9.577747
32.223251,-0.034119,-0.965496,-10.681364
32.256596,-0.991385,-1.024605,-10.346014
32.289915,-1.419962,-1.230065,-7.320982
32.323270,-0.847129,-1.634849,-5.655606
32.356616,-0.718436,-1.984864,-5.237054
32.389624,-0.923297,-2.037239,-5.899224
32.423287,-1.145666,-1.833874,-6.783165
32.456674,-1.113643,-2.341762,-8.570949
32.489926,-0.595729,-2.053999,-10.215825
32.523357,-1.472487,-1.799756,-11.489735
32.556661,-1.476677,-1.391829,-12.732520
32.589922,-0.425884,-1.748578,-12.098333
32.623338,-0.572085,-2.546624,-11.606906
32.656654,-0.859100,-2.483474,-11.723328
32.690076,-1.258796,-2.187630,-12.235705
32.723351,-1.145217,-1.414874,-11.439305
32.756644,-0.799542,-1.444204,-10.364869
32.789526,-1.060220,-1.703386,-9.186730
32.822643,-1.248920,-2.288490,-6.694128
32.855633,-0.978066,-2.579844,-5.360061
32.889942,-0.062850,-3.186796,-5.008100
32.923249,-0.075270,-2.855636,-6.045276
32.956601,-0.087840,-3.145195,-7.707061
32.989919,0.270704,-3.066932,-9.127771
33.023116,-0.171491,-2.939736,-10.119754
33.056215,-0.393112,-3.119607,-11.164711
33.089452,0.084399,-3.151331,-11.883446
33.122618,0.146052,-3.133374,-11.335453
33.155771,-0.059109,-3.404527,-12.296311
33.188968,-0.052525,-2.375731,-13.486870
33.223315,0.388772,-1.604472,-10.981697
33.256636,0.559814,-1.985612,-10.392553
33.289985,0.164308,-2.296121,-10.248447
33.323240,-0.544551,-1.972294,-8.581125
33.356577,-0.493074,-2.069113,-6.886868
33.389939,-0.426482,-2.040980,-5.552352
33.423251,0.053423,-2.372290,-5.498331
33.456652,-0.207854,-2.384860,-6.291438
33.489933,-0.612489,-2.978792,-7.392960
33.523314,-0.754200,-3.432809,-8.970197
33.556643,-0.737889,-3.339133,-10.812152
33.589917,-1.103168,-3.370857,-11.630848
33.623239,-0.855808,-3.374448,-11.473723
33.656607,-0.424387,-3.855999,-10.058251
33.689921,-0.047287,-3.797339,-11.484198
33.723255,-1.115439,-3.843130,-12.864654
33.756634,-0.893368,-2.927166,-12.937680
33.789938,-1.242934,-2.826456,-11.679482
33.823284,-1.747979,-2.683098,-9.567123
33.856580,-1.545512,-2.667086,-6.221406
33.889914,-0.977617,-2.632818,-4.822992
33.923248,-0.291355,-3.305463,-4.793363
33.956578,0.166403,-3.034460,-5.759907
33.989302,-0.257685,-3.251292,-6.782267
34.023310,0.170892,-3.488327,-7.981805
34.056581,0.106097,-3.706207,-8.458717
34.089916,0.233892,-4.061609,-9.383660
34.123300,0.514921,-3.753644,-10.643804
34.156651,0.740134,-4.079416,-11.410275
34.189934,0.893668,-3.572127,-11.448134
34.223239,0.311856,-3.606395,-12.837719
34.256643,-0.098615,-3.245905,-12.059725
34.289994,0.889029,-2.531510,-10.608637
34.323313,0.762132,-2.523279,-10.711891
34.356687,0.561011,-2.436786,-10.797786
34.389884,-0.186006,-1.833276,-8.698296
34.422866,0.226110,-1.999230,-6.178757
34.456618,0.281179,-2.040531,-5.066611
34.489774,0.813609,-1.977681,-5.936186
34.523288,0.121510,-2.057291,-6.809951
34.556615,-0.096669,-2.209777,-8.261637
34.589937,0.188999,-2.082431,-9.276666
34.623245,0.196332,-1.688272,-11.518317
34.656614,-0.246312,-1.244131,-12.080077
34.689916,-0.332207,-0.455812,-11.969939
34.723295,0.804331,-0.602163,-13.787353
34.756584,-0.033520,-0.498461,-13.645641
34.789939,-1.194151,-0.341635,-11.390821
34.823297,-1.790478,-0.743576,-10.389111
34.856526,-1.810680,-0.910428,-10.973317
34.889918,-1.969451,-1.280345,-9.077491
34.923250,-1.304288,-1.329129,-7.172237
34.956656,-0.321134,-2.103232,-5.688228
34.989509,0.061204,-2.212471,-5.520927
35.022523,-0.676087,-2.500384,-7.090382
35.056653,-1.013232,-2.211573,-8.680787
35.089910,0.055667,-2.127923,-9.395781
35.123257,0.188849,-2.113707,-9.811190
35.156607,-0.001197,-2.162490,-10.536510
35.189941,0.196182,-2.469707,-11.114131
35.223238,0.810017,-2.253024,-10.966134
35.256584,0.535722,-2.027063,-12.406747
35.289911,0.705118,-1.509897,-13.545829
35.323324,0.358395,-0.525696,-11.270359
35.356587,0.953824,-0.997670,-10.783869
35.389912,1.036128,-1.230065,-10.509723
35.423248,0.281628,-1.233208,-9.139892
35.456589,0.173137,-1.339903,-7.478257
35.489917,0.025439,-1.606118,-6.461433
35.523279,0.454466,-1.879665,-6.191627
35.556580,-0.371863,-2.003719,-6.038392
35.589921,-0.531981,-1.936679,-8.053334
35.623245,0.739236,-1.767134,-9.893045
35.656649,0.563256,-1.448095,-10.190086
35.689908,0.297490,-1.623027,-10.976759
35.723305,0.475116,-1.972294,-11.190000
35.756143,1.197742,-1.884903,-11.097820
35.789477,1.075185,-0.780538,-13.724054
35.822728,0.212643,-0.986596,-14.804925
35.856160,-0.151289,-1.075334,-12.704686
35.889441,-0.430672,-0.716191,-9.129866
35.922807,-0.856856,0.019603,-10.126338
35.956338,-0.701676,-1.228569,-9.786948
35.989419,-1.177540,-0.450276,-8.774015
36.022816,-0.590341,0.069883,-7.092776
36.056034,0.766621,0.446086,-9.099638
36.089018,0.137073,-0.528389,-8.248619
36.123265,-0.216384,0.054769,-9.267088
36.156765,0.053572,-1.356663,-8.869337
36.189933,-0.090384,-0.235388,-9.754475
36.223250,0.592885,-0.228355,-9.380218
36.256649,2.219953,-0.494570,-10.728651
36.289915,3.280473,-1.963764,-12.082920
36.323249,0.582859,-0.446235,-8.696949
36.356583,2.059536,0.451323,-12.337163
36.389920,1.611206,0.407178,-13.045872
36.423314,0.882594,1.780302,-11.499761
36.456577,0.189448,0.464192,-9.738913
36.489551,-0.144555,-0.173735,-10.296632
36.523247,-0.870323,0.135726,-8.362497
36.556571,-0.924943,-1.128757,-6.441381
36.589922,-0.117021,-1.760699,-5.964020
36.623271,-0.430822,-2.011500,-6.284256
36.655710,-0.217132,-0.988242,-8.078624
36.689913,0.161914,-0.762132,-10.211186
36.723248,-0.343730,-0.948138,-10.515560
36.756628,-0.212643,-1.467249,-10.290197
36.789962,0.565201,-1.623776,-11.347125
36.823271,0.503997,-2.410149,-12.403904
36.856576,-0.737889,-3.278677,-10.220015
36.889932,-1.262986,-3.729701,-9.298663
36.923248,-1.933088,-2.770938,-10.466177
36.956565,-1.538030,-2.278164,-10.877995
36.989907,-2.222796,-1.880862,-9.788145
37.023247,-2.503078,-1.742442,-8.695452
37.056583,-1.748877,-2.376779,-7.825129
37.089913,-1.160032,-2.506220,-6.916497
37.123247,-0.921352,-2.958291,-5.851039
37.156575,-0.498461,-3.120504,-5.697057
37.189917,-0.664115,-3.111526,-7.402088
37.223255,-0.828423,-3.204454,-8.471736
37.256656,-0.892770,-3.284064,-9.172364
37.289914,-0.357946,-3.508229,-10.361577
37.323247,-0.900551,-2.977146,-11.855313
37.356583,-0.815255,-3.119307,-11.606756
37.389909,0.803583,-4.050835,-10.574968
37.423246,0.064795,-3.434455,-12.728479
37.455849,-1.348582,-1.816067,-13.624242
37.490270,0.129292,-2.603039,-10.470966
37.523244,-0.560562,-2.999743,-9.938087
37.556652,-2.221300,-1.530398,-11.037963
37.589994,-1.092992,-1.753217,-10.580056
37.623319,-0.549040,-2.091709,-7.534522
37.656241,-0.599021,-2.105626,-5.073644
37.689291,-1.139381,-2.045619,-4.629504
37.723245,-1.352174,-2.379921,-5.965965
37.756609,-1.529800,-2.230727,-6.983537
37.789931,-1.638291,-2.440527,-8.177388
37.823272,-1.705780,-2.535999,-9.556199
37.856613,-1.613600,-2.712877,-11.166357
37.890024,-1.163773,-2.795779,-12.039074
37.923284,-0.658728,-3.072619,-11.811916
37.956586,-1.527705,-2.557248,-13.263752
37.989967,-1.304138,-1.418316,-13.943580
38.023275,-1.236051,-1.763542,-11.384686
38.058209,-2.721556,-2.138398,-9.874639
38.089914,-3.811256,-1.825943,-9.649276
38.123242,-3.049873,-1.858565,-7.969235
38.156579,-1.900166,-2.200649,-5.583478
38.190026,-1.243234,-2.220103,-4.429132
38.223266,-0.861494,-2.203941,-5.262643
38.256598,-1.658792,-2.567125,-7.329661
38.289916,-1.407691,-2.841271,-9.669179
38.323483,-1.370729,-2.838278,-10.658618
38.356582,-1.777908,-3.648445,-11.230404
38.389911,-1.908696,-3.678224,-12.045808
38.422524,-1.271666,-3.584996,-13.560943
38.456606,-1.801252,-2.326499,-15.219137
38.489915,-1.283787,-1.087605,-13.656715
38.522774,-0.198726,-1.088652,-11.037364
38.556579,-1.436273,-0.270106,-11.938514
38.589939,-1.847193,0.362884,-11.984455
38.623251,-0.523601,-0.010176,-8.714457
38.656625,0.150990,-0.534076,-5.956388
38.689918,0.524050,-1.020565,-4.365683
38.723300,0.019753,-1.183526,-4.246867
38.756617,-0.232096,-1.843152,-7.020648
38.789917,-0.051776,-2.305998,-7.928083
38.823245,-0.312454,-2.381567,-8.237695
38.856586,-0.534076,-2.665739,-9.083925
38.889915,-0.474817,-2.643592,-10.542196
38.923088,-0.846231,-3.077407,-11.343085
38.955749,-1.608811,-3.108683,-11.797700
38.989915,-1.327483,-2.935097,-11.520562
39.023242,-1.781200,-3.135469,-10.897149
39.056580,-3.057954,-3.283316,-9.858777
39.089913,-2.099341,-2.856833,-9.961731
39.123235,-1.632305,-2.461178,-11.275446
39.156605,-2.389499,-1.994142,-10.501643
39.189966,-1.789730,-2.389948,-7.554575
39.222954,-1.422057,-3.002735,-5.100430
39.255843,-0.840844,-3.167193,-4.115331
39.289917,-0.296443,-3.376244,-4.114134
39.323238,0.363034,-3.558360,-5.549060
39.356581,0.086344,-3.814399,-8.215248
39.389915,-1.016375,-3.795693,-10.055258
39.422385,-1.151652,-3.876949,-11.556625
39.455724,-0.444440,-3.648894,-12.682090
39.489918,0.101757,-3.445230,-13.161097
39.523267,-0.254992,-3.410512,-13.771042
39.556664,-1.387040,-2.443819,-14.615477
39.589917,-0.334751,-1.322844,-12.543072
39.622975,-0.130189,-1.812326,-9.497987
39.656585,-0.718885,-1.770875,-7.983002
39.689913,-1.330176,-0.649001,-8.259243
39.723272,-0.684616,-0.827077,-9.284746
39.756583,-0.109988,-1.579631,-6.945677
39.789965,-0.739984,-1.804395,-5.663836
39.823245,-1.000962,-2.233421,-6.052608
39.855726,-0.362735,-2.382914,-7.591536
39.889913,-1.022361,-2.580144,-8.949247
39.923323,-1.445551,-3.102847,-8.793917
39.955841,-1.752917,-2.761212,-10.002883
39.989915,-1.915130,-2.436187,-11.541512
40.022577,-2.306896,-2.176856,-12.370234
40.056578,-1.428043,-2.938987,-10.692737
40.089913,-2.239107,-2.866411,-11.353859
40.123257,-2.637158,-1.960023,-12.600086
40.156604,-1.742442,-1.692611,-12.637646
40.189945,-2.609923,-1.636196,-10.917500
40.223448,-2.941082,-1.762345,-8.719994
40.256582,-2.321261,-1.866347,-7.374255
40.290030,-0.902946,-2.210526,-6.251184
40.323303,-0.461349,-2.691927,-5.434733
40.356586,-0.941104,-2.933151,-5.051048
40.390002,-1.153897,-2.992560,-5.909550
40.423126,-1.560776,-3.214031,-7.567294
40.456577,-1.517529,-3.099554,-8.444950
40.489917,-0.456112,-3.321325,-9.142735
40.523242,-0.811514,-3.171233,-11.035569
40.555668,-0.727265,-3.101949,-11.723627
40.589916,-0.019454,-3.056008,-13.202698
40.623263,-0.722476,-1.913634,-15.202227
40.656578,-0.381739,-1.073389,-13.554658
40.689885,1.030441,-1.884753,-10.943389
40.723231,0.847727,-2.317071,-8.792271
40.756569,-0.211595,-1.636046,-9.405957
40.789984,-0.751208,-1.202082,-9.618001
40.823153,-0.890226,-1.619137,-7.139914
40.856157,-1.029992,-1.962867,-5.898925
40.889059,-1.450938,-1.928299,-5.792978
40.923247,-1.337060,-2.389050,-6.239363
40.956581,-1.346487,-2.388900,-7.198574
40.989916,-1.109602,-2.632519,-8.591600
41.023022,-1.698747,-2.862670,-9.344454
41.056582,-2.130317,-2.785753,-10.807363
41.089912,-1.365642,-2.315126,-11.921754
41.123269,-1.573047,-2.797725,-12.136193
41.156579,-1.870088,-2.701055,-12.156843
41.189914,-1.068750,-2.013595,-12.362004
41.223248,-0.427530,-1.649514,-12.398217
41.256578,-1.592051,-1.611505,-11.192694
41.289911,-2.682350,-1.638590,-9.687435
41.323239,-2.570866,-1.654752,-7.941701
41.356556,-1.483411,-1.856470,-5.622983
41.389908,-1.232459,-2.238658,-4.210504
41.423307,-1.033285,-2.554854,-3.562999
41.456572,-0.719483,-2.737269,-4.919961
41.489915,-0.956218,-2.581490,-7.860445
41.523272,-0.917910,-2.178053,-10.458845
41.556603,-0.076168,-2.255568,-12.324892
41.589908,-0.080658,-2.396681,-12.992749
41.623290,-0.028432,-2.680105,-13.338125
41.656581,-0.299585,-3.168989,-14.009722
41.689909,-1.211659,-2.385907,-15.246372
41.723235,-0.897558,-1.036876,-14.563401
41.756593,0.160567,-1.482064,-10.321173
41.789980,-0.478409,-1.833874,-8.410981
41.823394,-1.700393,-0.915216,-8.878316
41.856698,-1.444503,-0.023793,-9.156353
41.890022,-0.695989,-0.358245,-7.206505
41.923334,-0.368271,-0.981957,-4.785881
41.956685,-0.391765,-1.684531,-4.125207
41.989989,0.003442,-2.438133,-5.529457
42.023634,-0.297490,-2.475543,-7.500703
42.056649,-0.952028,-2.626832,-9.238507
42.089966,-1.358459,-2.072704,-10.695131
42.123270,-1.245927,-1.778955,-11.617979
42.156619,-0.767968,-1.613600,-12.453735
42.189994,-0.440698,-2.103681,-11.350118
42.223272,-1.101971,-2.663345,-10.966583
42.256676,-2.120740,-1.897921,-11.915619
42.290000,-1.851233,-1.207918,-13.253427
42.323345,-2.670378,-1.160331,-12.154898
42.356662,-3.339582,-1.198041,-9.905765
42.390088,-2.282953,-1.525161,-8.324188
42.423165,-1.418765,-1.828487,-6.510516
42.456085,-0.703023,-2.344456,-4.834964
42.490392,-0.583159,-2.593312,-4.830474
42.522880,-0.670400,-2.595407,-5.914637
42.556647,-0.698833,-2.723352,-6.774187
42.589922,-0.245115,-3.073217,-8.304136
42.623325,-0.062551,-2.770190,-10.650089
42.656640,-0.851917,-1.948950,-12.553846
42.689949,-1.171704,-1.613151,-13.405614
42.722864,0.015413,-1.812475,-13.216016
42.756513,0.091432,-2.295523,-12.812130
42.789904,-1.210312,-1.539976,-12.955937
42.823182,-0.234490,-1.086557,-11.915918
42.856552,0.326222,-1.544614,-9.988816
42.889875,-0.490530,-1.561524,-9.000125
42.923196,-0.709756,-0.942601,-9.959935
42.956554,-0.860447,-0.841143,-9.127621
42.989798,-1.214353,-0.999016,-7.663664
43.023304,-0.977767,-1.156441,-5.979882
43.056595,-1.027897,-1.442558,-5.438623
43.089976,-1.453482,-1.962717,-4.946597
43.123321,-1.099427,-2.134357,-7.187500
43.156575,-0.670849,-2.139445,-9.730533
43.189905,-1.169759,-2.229081,-10.763069
43.223241,-1.097332,-2.142887,-12.085015
43.256655,-0.430074,-2.397579,-12.419167
43.289916,-0.554577,-3.025930,-11.392168
43.323245,-1.170208,-3.763071,-10.409313
43.356606,-2.365556,-2.844413,-11.291608
43.389994,-2.169673,-1.469045,-12.906555
43.423347,-0.664265,-1.495681,-11.909334
43.456598,-1.413378,-1.783594,-9.569816
43.489903,-1.897024,-1.801851,-8.379107
43.523353,-1.066655,-1.986360,-6.954207
43.556577,-0.634336,-2.478237,-5.226878
43.589906,-0.320086,-2.968168,-5.229871
43.623334,-0.780538,-3.067980,-6.272733
43.656581,-0.997819,-3.131428,-8.076529
43.689916,-0.972530,-3.200863,-9.535997
43.723249,-0.956967,-3.276133,-9.760162
43.756770,-1.051691,-3.060049,-10.852256
43.790036,-0.276839,-3.076360,-11.622019
43.823327,-0.011223,-3.362776,-13.055150
43.856740,-1.353969,-2.337572,-13.341417
43.889995,0.428428,-1.852729,-12.520176
43.923358,0.838898,-2.349095,-11.038861
43.956623,-0.626256,-1.651609,-11.074925
43.989908,-0.708410,-1.044807,-11.135830
44.023358,-0.121360,-1.387340,-8.166165
44.057206,0.107294,-1.803946,-6.003675
44.089858,-0.536021,-1.753666,-4.476269
44.123399,-0.593634,-2.187630,-4.654494
44.156689,-0.237932,-2.261554,-6.492559
44.190045,-0.529886,-2.231326,-7.895162
44.223370,-1.539078,-2.322758,-10.062590
44.256748,-1.833276,-2.122685,-11.919510
44.290239,-0.951280,-1.900316,-12.654705
44.323496,-0.130638,-2.738316,-11.734252
44.356584,-0.935268,-3.235879,-11.690257
44.389941,-1.440014,-2.058189,-13.938792
44.423263,-0.784877,-1.141476,-14.420642
44.456624,-1.123669,-1.830582,-11.002797
44.489973,-2.691927,-1.846594,-9.921028
44.523237,-3.130830,-1.766984,-9.337720
44.556761,-2.092906,-1.788233,-7.377248
44.589927,-1.564068,-1.797062,-4.911581
44.623248,-0.692996,-2.618003,-3.201312
44.656705,-0.039805,-2.707939,-4.217986
44.689649,0.290756,-2.627281,-6.769248
44.723382,0.588097,-3.017400,-8.705778
44.756896,0.596028,-3.056308,-9.535099
44.790066,-0.367074,-3.029671,-11.891227
44.823407,-1.493736,-2.411346,-13.092561
44.856758,-0.726666,-2.661549,-13.238762
44.890099,0.043546,-3.372802,-13.714327
44.923351,-1.634700,-1.213904,-13.325405
44.956800,-0.875262,-1.147163,-11.583711
44.990139,-0.161016,-2.151117,-9.363309
45.023493,-1.004104,-1.020715,-10.309651
45.056831,-1.268523,-0.178823,-10.969427
45.090184,-0.619821,-0.548292,-7.956067
45.123539,-0.281029,-1.086857,-4.828379
45.157120,-0.502351,-1.560177,-4.137328
45.190471,-1.541622,-2.049510,-5.239149
45.223851,-1.668220,-2.127623,-6.529371
45.257160,-1.091645,-2.432596,-8.553441
45.290676,-1.467698,-2.299414,-10.382228
45.323829,-1.992346,-2.336675,-11.384536
45.357205,-1.779704,-2.121189,-12.659494
45.390614,-1.185471,-2.341014,-12.894583
45.423941,-1.333169,-3.437897,-11.813862
45.457265,-2.286694,-2.804608,-12.279102
45.490827,-1.592500,-1.226025,-14.437851
45.523890,-1.794369,-1.878767,-12.094293
45.557190,-2.639851,-2.045469,-9.286392
45.590715,-1.987707,-1.463059,-8.139828
45.623910,-1.176942,-1.438817,-6.733484
45.657218,-0.600667,-1.843451,-4.655392
45.690625,0.518513,-2.415836,-3.560155
45.723619,-0.081705,-2.361216,-5.518533
45.757416,-0.587349,-2.452049,-7.277137
45.790750,0.283124,-2.935246,-7.586598
45.823997,-0.542007,-3.045384,-9.646882
45.857321,-1.195946,-2.793535,-12.037728
45.890765,-0.612339,-2.657958,-13.469511
45.923985,0.827077,-3.637970,-12.493241
45.957377,0.051028,-4.221876,-12.496383
45.990774,-1.448993,-2.679656,-13.595810
46.024020,0.554577,-2.305699,-13.298469
46.058859,-0.222070,-2.892897,-10.910168
46.090722,-1.979776,-2.188079,-9.824059
46.124101,-1.232759,-0.890226,-9.978790
46.157576,-0.333255,-1.032387,-7.955318
46.190844,-0.388473,-1.371927,-5.043117
46.224235,-0.825281,-1.823100,-2.883021
46.257533,-0.652593,-1.861259,-4.342788
46.290907,-0.582410,-1.701440,-6.441979
46.324464,0.169994,-2.656013,-7.062848
46.357626,-0.488734,-2.597053,-10.350503
46.390832,-1.273312,-1.519175,-13.950015
46.424228,0.546197,-1.725533,-14.190790
46.457520,0.631793,-3.002735,-11.334855
46.490995,-0.053273,-3.632583,-10.369807
46.524510,-1.329428,-1.962118,-12.562675
46.557695,0.122558,-2.198554,-12.354971
46.591046,-0.669802,-2.873294,-10.440738
46.624422,-1.939073,-2.315575,-10.575716
46.657765,-1.870088,-2.021975,-9.577897
46.691041,-1.980524,-2.146329,-6.896744
46.724258,-1.273013,-2.516994,-4.847833
46.757830,-0.342682,-2.544379,-4.627409
46.790949,-0.446535,-2.650326,-5.718156
46.824081,-0.189149,-3.392855,-6.259116
46.857870,-0.445786,-3.422185,-7.920601
46.891043,-0.288362,-3.291995,-9.198552
46.924513,-0.240776,-3.199516,-11.053077
46.956571,-0.479905,-2.306297,-12.803002
46.989934,-0.592586,-1.973940,-14.522100
47.023298,-0.924644,-1.796913,-14.954867
47.056568,-0.596477,-0.878404,-14.284467
47.089913,-0.247809,-0.604558,-12.395374
47.123241,-0.072876,-0.940656,-10.777734
47.156698,-1.010090,-0.896212,-10.541148
47.189905,-0.919706,-0.363333,-10.780876
47.223241,-0.785476,-0.631194,-9.207381
47.256689,-0.469280,-1.105861,-6.422675
47.289909,-0.290307,-1.789430,-5.029948
47.323266,-0.857454,-1.969750,-5.084269
47.356574,-0.793108,-2.672024,-5.497882
47.389908,-0.482150,-3.534267,-6.879685
47.423241,-0.864487,-3.889669,-7.956366
47.456570,-1.451237,-4.067744,-8.669863
47.489912,-1.457822,-3.047030,-11.071633
47.523254,-0.080059,-2.760912,-12.652910
47.556583,0.549190,-3.244708,-11.782437
47.589960,-0.792060,-3.096262,-11.924298
47.622916,-0.937214,-2.679806,-12.997088
47.655891,-1.219889,-1.950596,-12.882612
47.690017,-2.943477,-2.476890,-10.310100
47.723243,-3.823976,-2.096498,-9.312580
47.756585,-3.026678,-1.695754,-8.787333
47.789912,-2.045170,-2.248535,-5.206527
47.823466,-1.082667,-2.701953,-3.201312
47.856594,-0.617726,-2.611419,-4.294154
47.889897,-0.597524,-2.476740,-6.920837
47.923231,-0.259182,-2.911154,-8.218540
47.956658,0.179721,-2.860724,-9.320810
47.989930,-0.016311,-2.995403,-10.816491
48.023372,-0.547693,-2.569968,-12.416175
48.055680,0.293450,-2.746247,-13.084779
48.089907,0.676835,-3.557911,-12.544718
48.122383,-0.260828,-2.645538,-13.310441
48.156613,0.171192,-1.896575,-12.836971
48.189909,0.720980,-2.566825,-9.989265
48.223265,-0.353756,-2.352986,-9.479881
48.256572,-0.958912,-1.447945,-10.605645
48.289890,-0.568643,-1.073987,-9.046814
48.322986,-0.084249,-1.494484,-6.111418
48.356583,-0.205460,-1.744388,-4.191948
48.389930,-0.465390,-2.008208,-4.440804
48.423249,-0.781884,-2.546474,-6.009212
48.456573,-0.767668,-2.894693,-7.270851
48.489904,-0.664564,-2.779468,-9.945719
48.523250,-1.920817,-2.191521,-12.054937
48.556586,-1.384197,-2.547821,-11.812964
48.589904,-0.370217,-2.593013,-11.831969
48.623250,-0.553529,-3.061096,-11.434666
48.656574,-1.137586,-2.983431,-11.969191
48.689916,-0.576724,-2.520735,-13.184741
48.723241,-0.948736,-2.191970,-12.904011
48.756573,-2.353884,-1.970049,-11.073728
48.789909,-2.231326,-1.835520,-9.232072
48.823275,-1.383299,-1.681837,-7.102952
48.856573,-1.165270,-1.918273,-5.542027
48.889907,-1.213754,-2.054897,-4.693701
48.923276,-0.723973,-2.016139,-5.262942
48.956570,-1.100923,-2.441574,-6.808754
48.989906,-1.515284,-2.802962,-8.229315
49.023256,-1.567809,-2.901427,-9.587324
49.056575,-1.961819,-2.711530,-11.103956
49.089909,-1.374171,-2.893496,-11.653145
49.123280,-0.482599,-2.956346,-11.845287
49.156577,0.219077,-3.583649,-11.897512
49.189970,-1.091496,-3.062144,-12.759904
49.223099,-0.836055,-1.727029,-13.175912
49.256129,0.186455,-2.027363,-10.459294
49.289107,-1.001411,-2.136752,-8.843749
49.323113,-1.377463,-1.436572,-9.162488
49.356572,-0.048933,-1.129655,-9.536745
49.389906,0.063149,-1.341998,-7.719331
49.423258,-0.292103,-1.607465,-5.799712
49.455941,-0.453717,-1.656847,-5.830538
49.489928,-0.379495,-1.627217,-6.414744
49.523257,-0.386528,-2.144832,-6.916347
49.556571,-1.893432,-2.201397,-9.240751
49.589905,-2.832591,-1.560926,-11.476417
49.623253,-1.771623,-1.424302,-12.374574
49.656588,-0.761383,-1.894031,-11.869529
49.689901,0.102056,-2.857731,-10.911664
49.723251,-0.802535,-2.787250,-12.068554
49.756633,-1.501817,-2.182542,-13.888362
49.789945,-1.022211,-2.040831,-12.956236
49.823259,-1.862755,-2.080336,-10.247250
49.856621,-2.374385,-1.741694,-8.735706
49.889903,-1.153747,-1.679293,-8.131598
49.923283,-0.686861,-1.917225,-6.566931
49.956598,-0.515071,-2.407156,-5.240945
49.989932,0.194985,-2.663046,-5.169416
50.024892,0.267412,-3.048227,-6.590275
50.056623,-0.274744,-2.852045,-8.390779
50.089988,-0.301979,-2.901128,-9.627728
50.123308,-0.392065,-2.704198,-10.024431
50.156655,-1.012484,-2.359420,-10.829959
50.189991,0.159370,-2.473149,-11.259734
50.223325,0.595130,-3.130082,-10.927377
50.256652,-0.624610,-2.815682,-12.156843
50.290020,0.446385,-1.001111,-13.881778
50.323350,1.524113,-1.914532,-11.846185
50.356665,0.659476,-2.397280,-9.569517
50.389448,-0.143508,-1.602227,-10.023534
50.423272,-0.660374,-1.255953,-9.371988
50.456608,-0.613087,-1.341998,-7.164006
50.490042,-0.587049,-1.871435,-5.275812
50.523276,-0.562209,-1.809034,-5.392683
50.556569,-0.798195,-1.738851,-6.854096
50.589945,-1.065308,-1.903907,-8.399758
50.623251,-1.094339,-1.975736,-9.170120
50.656596,-1.608063,-1.694856,-10.513165
50.689908,-1.881610,-1.708324,-11.571739
50.723250,-0.651695,-2.380670,-11.160970
50.756593,-0.500855,-2.961883,-11.346976
50.789934,-1.585916,-2.164735,-13.569622
50.823239,-1.168562,-1.632305,-14.717384
50.856631,-0.931827,-2.107721,-12.739104
50.889921,-3.435952,-1.820107,-10.996662
50.923389,-4.424792,-1.470541,-9.331435
50.956608,-2.762409,-1.422356,-8.041812
50.989917,-1.567809,-1.813523,-5.204881
51.023244,-0.522703,-2.106673,-2.679058
51.056598,-0.303027,-2.048762,-3.616571
51.089913,-0.150092,-2.506070,-6.150924
51.123241,-0.734747,-2.607379,-9.456237
51.156582,-0.739984,-2.788596,-10.161504
51.189995,-1.477425,-2.866261,-10.996362
51.223317,-1.339753,-2.682051,-12.607867
51.256538,0.322331,-3.478151,-11.790068
51.289417,0.545598,-3.935610,-11.488239
51.323283,-0.820492,-2.140792,-14.261721
51.356581,0.137073,-1.429838,-13.124135
51.389919,0.256488,-1.609111,-9.943175
51.423247,-0.167002,-1.648766,-8.751120
51.456584,-0.519261,-0.698683,-10.100450
51.489947,-0.484993,-0.948437,-9.092305
51.523263,-0.263372,-1.360404,-6.482832
51.556582,-0.463594,-1.610607,-4.843344
51.589916,-1.001261,-1.357561,-5.437426
51.623251,-0.807773,-1.325238,-7.195731
51.656586,-0.249604,-1.421608,-8.461111
51.689914,-1.213305,-1.599384,-9.058187
51.723248,-2.188528,-1.787335,-10.585293
51.756580,-1.438368,-2.241951,-12.253213
51.789915,-0.875262,-2.895591,-11.878657
51.823400,-1.599085,-3.151480,-12.588264
51.856622,-1.705331,-2.246141,-14.676681
51.889969,-1.002458,-2.287891,-13.944927
51.923256,-2.363461,-2.454593,-11.451127
51.956580,-2.912800,-2.187032,-9.518040
51.989950,-1.802150,-2.300012,-7.321281
52.023402,-1.338257,-2.570267,-5.005407
52.055714,-0.561161,-2.967420,-4.140620
52.089926,-0.140814,-2.919983,-5.566119
52.123252,-0.372162,-3.330304,-7.072425
52.156604,-0.389820,-3.903586,-7.843984
52.189915,-0.683419,-4.056371,-8.868290
52.223253,-1.383898,-4.027939,-10.160606
52.256597,-2.052802,-3.311299,-12.230917
52.289915,-0.205011,-3.834002,-12.805546
52.323260,-0.323079,-4.029585,-12.829339
52.356638,-1.650861,-3.304864,-12.193955
52.389908,-0.179422,-2.470455,-11.095276
52.423232,1.339304,-2.806404,-10.126937
52.456592,-0.522553,-2.308392,-9.677409
52.489932,-0.905639,-1.897323,-10.013058
52.523265,-0.820492,-1.715507,-8.066353
52.556589,-0.628051,-1.790029,-6.255674
52.589919,-0.981358,-2.134657,-4.821346
52.623336,-1.288725,-2.778570,-5.299455
52.656590,-1.169460,-3.029521,-6.870706
52.689917,-1.303839,-3.347213,-7.863438
52.723250,-1.170058,-3.221513,-9.233568
52.756583,-1.296207,-3.008272,-10.411558
52.789970,-1.026700,-2.884069,-11.604212
52.822662,-0.869276,-3.131129,-12.105965
52.855935,-1.286780,-3.397045,-11.367178
52.889265,-1.992047,-3.036255,-11.201523
52.922583,-1.423404,-2.628628,-11.758494
52.955753,-1.673158,-2.149771,-11.862645
52.989980,-2.223245,-2.219953,-10.024132
53.023262,-2.893795,-2.181196,-8.104812
53.056586,-1.757407,-2.391743,-8.106757
53.089932,-0.956518,-2.431099,-7.132432
53.123243,-0.161016,-3.199067,-5.669223
53.156580,0.576874,-3.563747,-5.981378
53.189957,0.209201,-3.508828,-8.116035
53.223157,-0.847428,-3.274637,-9.370641
53.256407,-0.732053,-3.610735,-8.856468
53.289986,-0.762431,-3.159412,-10.537407
53.323243,-1.062914,-2.699259,-11.916666
53.356593,-0.146201,-3.015006,-12.255159
53.389986,0.035465,-3.339133,-12.095789
53.423227,-0.480803,-2.263499,-12.883659
53.456586,0.378297,-1.610308,-12.565668
53.489915,0.395357,-2.090961,-10.756485
53.523247,-0.670251,-1.688421,-9.988218
53.556599,-0.510731,-1.202231,-9.647780
53.589932,-0.194087,-1.690516,-7.286115
53.623318,-0.255740,-2.254820,-5.209520
53.656603,-0.183163,-2.407156,-4.447538
53.689913,-0.299286,-2.434990,-6.605090
53.723257,-0.608448,-2.708238,-7.879000
53.756633,-0.140215,-3.175423,-7.607548
53.789894,-0.988691,-3.363973,-9.626830
53.823303,-1.430587,-3.155820,-11.881201
53.856607,-0.823335,-3.428470,-12.234209
53.890269,-0.643914,-3.879942,-11.041106
53.923293,-1.169160,-4.004445,-11.157378
53.956600,-2.210825,-3.105690,-12.428745
53.989417,-1.773867,-2.670229,-12.630912
54.023722,-1.916627,-2.528667,-10.435052
54.056585,-2.728889,-2.127324,-8.658790
54.089963,-2.568322,-1.638890,-8.220785
54.123260,-1.664927,-1.723587,-6.970668
54.156599,-0.851319,-2.202295,-4.823291
54.189920,-0.444589,-2.662747,-3.830560
54.223259,-0.466287,-2.722454,-5.471245
54.256643,-0.634037,-3.146991,-7.101605
54.289113,-0.653191,-3.593975,-7.981805
54.323292,-0.549639,-3.677775,-10.387166
54.356607,-0.717239,-2.776475,-13.118748
54.389958,-1.131151,-2.785753,-13.787652
54.422997,-0.741930,-2.890952,-12.111053
54.456631,1.020565,-3.724314,-10.386418
54.489968,1.496130,-4.851125,-10.125590
54.523234,-0.764975,-2.216362,-12.117936
54.555989,0.448181,-1.973940,-12.367990
54.589994,0.165804,-1.602676,-12.527060
54.623310,-1.699196,-1.331074,-11.030481
54.656614,-1.286929,-1.150904,-9.516992
54.689996,-0.370815,-1.177241,-7.325621
54.723252,-0.466736,-1.601628,-4.265423
54.756590,-0.921651,-1.799756,-3.800632
54.789281,-1.026102,-1.620334,-4.995680
54.823276,-0.915067,-1.742143,-6.667790
54.856602,-1.246975,-1.769677,-7.845031
54.889914,-1.197892,-1.673756,-9.278761
54.923318,-1.204326,-1.252511,-11.479260
54.956647,-0.634187,-1.594446,-12.320553
54.989914,0.123007,-2.600495,-12.284489
55.023306,-0.750908,-2.474047,-14.036209
55.056601,-1.591004,-1.223481,-17.132920
55.089919,-1.793770,-1.220937,-15.131745
55.123267,-2.831843,-1.999529,-11.242375
55.156595,-3.973170,-2.028709,-7.889027
55.189917,-2.321112,-1.894180,-7.000746
55.223310,-1.445701,-1.876822,-5.525566
55.256594,-0.469879,-2.039783,-3.475457
55.288962,0.422891,-2.421672,-3.993372
55.323254,0.991235,-2.331138,-6.174717
55.356582,1.153298,-2.502180,-8.624372
55.389927,0.985548,-2.629676,-9.578495
55.423253,0.861794,-2.426909,-11.025543
55.456579,0.410171,-2.046367,-12.864056
55.489929,0.798345,-2.539441,-13.079542
55.523245,0.278336,-3.125443,-14.148591
55.556605,-1.864701,-0.746569,-15.792269
55.589904,-0.147847,-0.822737,-13.683800
55.623255,0.187054,-1.272414,-10.469170
55.655790,-1.131899,-1.089999,-9.264096
55.689925,-1.322844,-0.451473,-8.949097
55.723265,-0.964000,-0.714246,-7.233141
55.756579,-1.117085,-1.419513,-4.077321
55.789945,-1.312818,-1.721941,-3.661015
55.823249,-1.526358,-1.707127,-4.759843
55.856610,-1.392428,-1.784791,-6.954955
55.889913,-1.492838,-1.779255,-8.710866
55.923268,-1.338257,-1.800953,-10.543094
55.956578,-1.846295,-1.276005,-12.148613
55.989918,-0.871371,-1.799008,-11.900655
56.023342,-0.427081,-2.419876,-11.885241
56.056448,-1.578434,-2.058638,-14.341032
56.089243,-1.611056,-0.558467,-16.987318
56.123245,-1.234554,-0.081555,-16.053845
56.156579,-2.739813,-1.296806,-10.326112
56.189908,-3.844178,-1.300696,-7.671595
56.223248,-2.638654,-1.525161,-6.351894
56.256576,-1.663281,-2.122984,-3.837593
56.289911,-1.522617,-2.262901,-3.401833
56.323366,-1.210013,-2.233571,-3.595770
56.356598,0.170144,-2.486018,-5.552502
56.389074,-0.394758,-2.511158,-7.606351
56.422391,-0.495917,-2.448458,-8.821751
56.456096,-0.456561,-2.191820,-11.169200
56.489195,-0.545449,-1.958527,-12.810184
56.522540,-0.170892,-2.131514,-13.278717
56.555911,0.330561,-2.498588,-14.313198
56.589980,-1.304587,-1.397815,-15.122318
56.623311,-1.309825,-0.722177,-14.139313
56.656657,-0.131985,-1.099127,-10.612229
56.689680,0.126897,-1.327483,-8.814718
56.723250,-0.753901,-0.761234,-9.609023
56.756796,-0.851768,-0.657082,-8.958076
56.789898,-0.823635,-1.043011,-6.758923
56.823249,-1.005601,-1.389884,-5.188420
56.856574,-1.435525,-1.508850,-4.986103
56.889912,-1.155393,-1.679293,-6.033903
56.923262,-1.424451,-1.720595,-7.024988
56.956632,-1.642331,-1.743490,-8.905551
56.989372,-1.954337,-1.420860,-10.464232
57.023289,-1.796763,-1.482213,-10.990526
57.056582,-0.842490,-1.682286,-11.477464
57.089938,-0.197379,-2.456239,-11.430626
57.123215,-1.024456,-2.532857,-13.182646
57.156323,-1.693060,-1.072790,-15.796160
57.189914,-0.689405,-0.416157,-15.189358
57.223250,-1.594895,-0.933922,-11.403840
57.256586,-2.454294,-0.999316,-8.800502
57.289913,-1.699495,-1.189661,-6.640106
57.323247,-1.239493,-1.757107,-4.440355
57.356587,-1.243383,-2.181046,-3.093120
57.389938,-0.484993,-2.405959,-3.822031
57.423253,-0.079161,-2.865962,-6.335134
57.456580,-0.400295,-3.194727,-8.755908
57.489916,-0.423938,-2.952156,-10.623602
57.523266,0.121360,-2.661101,-11.851422
57.556673,0.164757,-2.263649,-13.862773
57.590280,0.694942,-2.593312,-13.215418
57.623246,0.185557,-2.805207,-13.112314
57.656662,-0.845183,-1.722690,-13.427611
57.689930,-0.093377,-1.198939,-10.891612
57.723354,0.258882,-1.626020,-8.857216
57.756583,-0.741331,-1.392278,-9.268136
57.789346,-0.788618,-0.578370,-10.809608
57.822416,-0.916563,-0.779939,-8.457221
57.856592,-0.800141,-1.209265,-6.241308
57.889928,-0.216084,-1.576339,-5.752125
57.923257,-1.178289,-1.985313,-6.198360
57.956588,-1.603125,-2.272179,-6.510965
57.989993,-0.675638,-2.576253,-7.177025
58.023354,-0.864936,-2.618452,-9.555600
58.056609,-1.344243,-2.382465,-10.803024
58.089930,-0.583159,-2.468510,-11.724824
58.123329,0.268908,-2.577749,-12.191411
58.156601,-0.147847,-3.260271,-10.788508
58.189921,-0.640173,-3.061844,-11.724375
58.223250,-0.805528,-1.615396,-14.193484
58.256586,-1.043610,-1.974389,-11.644167
58.289936,-2.051306,-2.277715,-8.761894
58.323255,-1.721193,-1.660288,-9.664091
58.356650,-1.672559,-1.434178,-9.056690
58.389944,-1.419064,-1.992047,-6.447217
58.423257,-0.141712,-2.285796,-5.389989
58.456607,0.034568,-2.250181,-6.936549
58.489918,-0.565351,-2.456090,-8.191006
58.523243,-0.451473,-2.825259,-8.332419
58.556582,-0.106695,-2.657359,-8.778953
58.588992,-0.001347,-2.513104,-9.384109
58.622409,-0.624161,-2.523279,-10.176169
58.656105,-0.348668,-2.335029,-11.471179
58.689914,-0.072726,-2.136303,-12.784596
58.723312,-0.700030,-1.005301,-14.092325
58.756607,0.226859,-0.896212,-12.235107
58.789914,0.912972,-1.599384,-9.614410
58.823272,0.162512,-1.571999,-9.460726
58.856598,-0.342084,-0.671149,-11.402643
58.889936,-0.726367,-1.088204,-9.436185
58.923276,-0.959960,-1.722390,-7.393858
58.956574,-0.853414,-2.077493,-6.230384
58.989911,-1.493736,-2.366603,-5.773375
59.023249,-1.862306,-2.841121,-6.591173
59.056615,-1.275856,-2.825857,-8.306381
59.089925,-1.233806,-2.644789,-9.280257
59.123284,-1.913185,-2.241651,-10.240665
59.156581,-1.497327,-1.393774,-12.211313
59.189972,-0.992432,-1.847342,-11.786327
59.223262,-1.552246,-2.445315,-10.228694
59.256657,-2.482876,-1.824596,-10.872608
59.289996,-2.142737,-1.141626,-11.952431
59.322981,-1.832677,-0.927188,-12.007350
59.355858,-1.607315,-1.195348,-10.465130
59.389924,-2.099640,-1.592201,-8.889539
59.423319,-2.164585,-2.012847,-7.967589
59.456610,-1.203429,-2.010902,-7.553976
59.489982,-1.084313,-2.331736,-6.514556
59.523252,-1.249070,-2.420924,-6.147632
59.556570,-1.118731,-2.271730,-7.153232
59.589957,-0.981658,-2.283102,-9.288487
59.623241,-1.173350,-2.292979,-9.814931
59.656651,-1.533391,-2.261554,-10.384772
59.689940,-2.346701,-1.805442,-11.575929
59.723266,-1.779554,-2.213219,-11.135231
59.756584,-2.311684,-1.859763,-13.229484
59.789978,-1.317157,-0.921801,-13.950314
59.823287,-0.124952,-1.452285,-11.405785
59.856548,-0.790264,-2.058937,-7.537515
59.889913,-0.829770,-1.482213,-8.873378
59.923247,-1.058724,-1.257300,-9.315124
59.956585,-0.933473,-1.849437,-6.655370
59.989918,-0.398948,-2.059985,-6.562442
60.022341,-0.955470,-2.093505,-7.602909
60.056575,-0.914169,-2.808050,-6.130872
60.088980,-0.960259,-2.910855,-7.549636
60.123248,-0.846530,-2.400423,-10.428767
60.156583,-0.434264,-2.415686,-10.832204
60.189926,-0.311108,-2.622942,-9.901126
60.223281,-0.465689,-2.112210,-11.362090
60.256641,-0.919855,-2.166381,-11.579970
60.289915,-2.062678,-2.551263,-9.319314
60.323289,-2.354183,-2.411496,-9.679654
60.356576,-1.497627,-1.481465,-12.533794
60.389808,-1.209863,-1.515434,-13.140147
60.423255,-1.602826,-1.719547,-10.305610
60.456604,-1.631258,-2.032451,-7.703619
60.489872,-1.258497,-2.066719,-8.211956
60.523248,-0.505644,-2.598699,-7.517912
60.556589,0.099513,-2.756722,-7.268158
60.589917,-0.360789,-2.850399,-7.439200
60.623257,-1.377463,-2.778570,-8.001259
60.656638,-1.921715,-2.671127,-9.272775
60.689978,-1.796164,-2.616956,-9.740259
60.722705,-1.363397,-2.648231,-9.587624
60.756591,-1.659840,-2.174462,-10.680466
60.789940,-1.280944,-1.932489,-11.170247
60.823254,-0.110137,-2.708986,-9.349242
60.856572,-0.209949,-3.070224,-11.309715
60.890058,-1.376565,-1.073239,-14.620565
60.923323,0.219377,-0.808670,-14.372307
60.956592,-0.058061,-2.263948,-8.625270
60.989871,-1.333169,-1.631856,-8.129353
61.023252,-0.992133,-1.377014,-8.652206
61.055870,-0.758690,-1.732267,-7.781433
61.089914,-0.446535,-1.923810,-7.422290
61.122496,-0.278186,-2.279661,-6.645494
61.156623,-0.633588,-2.694920,-5.438474
61.189901,-0.840694,-2.515797,-7.704816
61.223245,-0.929283,-2.107571,-9.874190
61.256630,-1.251015,-1.971247,-10.489372
61.289930,-0.804331,-2.256616,-10.300672
61.323248,-0.570888,-2.376330,-10.717278
61.356602,0.081555,-2.514151,-10.540999
61.389931,-2.297319,-2.053849,-12.474236
61.423264,-3.006626,-0.848924,-14.572829
61.456592,-1.811278,-0.688657,-13.825661
61.489917,-2.201547,-1.064261,-9.594358
61.523266,-2.939736,-1.260742,-7.689852
61.556588,-2.712129,-1.404698,-7.588244
61.589910,-1.885800,-2.005215,-6.786308
61.623312,-1.199987,-1.966458,-6.427464
61.656583,-0.731006,-1.828338,-7.224313
61.689920,-0.340138,-1.734661,-8.839110
61.723266,-0.679529,-2.042177,-9.085422
61.756643,-1.435974,-2.357176,-10.111823
61.789919,-2.133908,-2.468510,-11.849626
61.823273,-2.817926,-1.811278,-12.158190
61.856646,-3.368163,-1.582175,-11.250306
61.889924,-1.400359,-1.764440,-9.976995
61.923269,-1.060220,-1.577686,-10.700518
61.956578,-1.725234,-0.945145,-11.748617
61.990035,0.333105,-0.894566,-12.060024
62.023266,0.542605,-1.425050,-10.728202
62.056590,-0.757493,-1.382701,-9.842466
62.089916,-1.030142,-1.243832,-9.537792
62.123248,-0.548741,-1.625122,-7.455810
62.156674,-0.446535,-1.945658,-6.467568
62.189931,-0.770362,-1.878917,-6.479091
62.223251,-0.820343,-1.934734,-7.298685
62.256580,-1.293663,-1.981572,-7.447879
62.289914,-1.008593,-2.130317,-7.552180
62.323284,-0.840096,-1.777010,-9.291181
62.356608,-1.038672,-1.745884,-10.248896
62.389915,-0.606204,-2.255418,-10.063339
62.423251,-0.139916,-2.626084,-10.426073
62.456597,-1.811129,-2.699708,-13.401274
62.489916,-2.833788,-1.439116,-15.590550
62.523381,-1.097481,-1.745286,-12.617594
62.555598,-1.049596,-2.449805,-8.776559
62.589499,-2.424964,-2.659305,-7.224313
62.622261,-2.821518,-2.166231,-9.400570
62.656590,-1.893731,-1.772970,-10.161205
62.689920,-1.223930,-2.492603,-7.040102
62.723267,-0.902497,-2.840223,-5.218050
62.756537,-0.935268,-2.291782,-6.910212
62.789956,-1.074586,-2.282055,-8.818459
62.822414,-1.011586,-2.430052,-9.486615
62.856604,-0.247210,-2.769741,-9.043223
62.889939,-0.257236,-2.372589,-9.974451
62.923262,-1.018470,-2.050408,-11.162765
62.956591,-0.524349,-2.064175,-11.224119
62.989919,0.385780,-2.393539,-10.916004
63.023259,-0.477211,-1.907199,-12.625226
63.056586,-0.997969,-1.073987,-12.627321
63.089919,0.660075,-1.879066,-10.101946
63.123271,0.814806,-1.772970,-10.072616
63.156589,-0.515670,-1.377613,-11.010429
63.189923,-0.656783,-1.130552,-9.878380
63.223255,-0.254243,-1.569455,-7.445485
63.256580,-0.346573,-1.814421,-5.610264
63.289969,-0.589294,-2.103381,-5.891293
63.322588,-1.598336,-1.459318,-7.874212
63.356579,-0.731006,-1.920967,-9.668281
63.389899,0.002694,-1.777160,-9.001323
63.423290,-0.023344,-1.856770,-9.952303
63.456634,0.323678,-1.334366,-9.741307
63.489989,0.027983,-1.758604,-10.483237
63.523273,0.393561,-2.037838,-10.504037
63.556616,0.118517,-3.093269,-10.177366
63.589917,-0.326371,-2.512954,-13.892702
63.623321,-1.163324,-0.812711,-12.713964
63.656602,0.092330,-0.568942,-10.096110
63.689916,-0.344777,-1.396019,-9.232970
63.723250,-2.044721,-1.296806,-11.580868
63.756638,-1.513040,-1.512591,-9.568469
63.789938,-0.553230,-2.375282,-7.857601
63.823337,-0.326371,-2.732480,-7.362583
63.856587,-0.773654,-2.045769,-8.355015
63.889914,-0.486340,-1.562272,-9.807748
63.923249,-0.340887,-1.629911,-9.695217
63.956639,-0.363632,-1.309825,-9.386055
63.989915,-0.253944,-1.647569,-8.881159
64.023267,-0.285219,-1.855423,-8.764438
64.056644,-0.097118,-1.562422,-9.533303
64.089870,-0.675937,-1.288426,-10.701865
64.123318,-0.388922,-1.939971,-10.215376
64.156722,0.253495,-1.652507,-11.238185
64.189973,-0.539014,0.341934,-11.333209
64.223288,0.339989,0.082603,-10.118557
64.256349,1.221535,-0.883642,-8.398561
64.289278,1.527854,-2.056543,-7.448627
64.323302,0.473321,-0.911026,-9.578645
64.356591,-0.086344,-0.270854,-11.655539
64.389964,0.127346,-0.982107,-11.118022
64.422850,-0.546047,-1.567510,-8.869786
64.456582,-0.838749,-1.967655,-8.566161
64.489938,-1.086857,-1.589208,-9.998693
64.523260,-0.339989,-1.624973,-10.162552
64.556577,-0.412266,-1.985313,-8.866794
64.589978,-0.492625,-2.142139,-9.209177
64.622880,-0.641819,-1.637393,-9.638652
64.656602,-0.006884,-1.571550,-9.985524
64.689917,0.468981,-1.836867,-9.784853
64.723254,-0.022446,-2.243297,-9.937788
64.756571,-1.462760,-2.579844,-11.698337
64.789932,-1.184723,-1.523216,-12.578687
64.823257,-0.130339,-0.667557,-12.103421
64.856660,0.091282,-1.040467,-10.009617
64.889989,-0.191693,-1.622578,-8.322093
64.923268,-0.661422,-1.472187,-8.445698
64.956643,-1.004254,-1.416969,-8.707573
64.989914,0.019903,-1.707426,-8.582472
65.023306,-0.023494,-1.428492,-9.236711
65.056583,-0.813309,-1.129056,-9.922375
65.089918,-1.109602,-1.543567,-9.475840
65.123247,-1.442259,-1.515135,-9.187179
65.156581,-1.165120,-1.472487,-9.082429
65.189967,-1.183526,-1.636944,-8.558978
65.223306,-1.111548,-1.791226,-8.190258
65.256364,-0.947988,-1.941468,-8.535933
65.289918,-1.223630,-2.091859,-8.810977
65.323268,-0.767668,-2.249732,-9.064023
65.356581,-0.437855,-2.417631,-9.010151
65.389908,0.131087,-2.703001,-9.771385
65.423250,-0.229702,-2.689682,-10.079201
65.456650,-0.304823,-2.823313,-10.130229
65.489911,-0.351811,-2.841271,-10.001686
65.523274,-0.443392,-3.094616,-10.716081
65.555997,-1.015028,-2.052802,-11.996576
65.589671,-0.790863,-1.316559,-11.172193
65.623279,-0.156826,-2.476740,-8.202080
65.656599,-0.152486,-3.293641,-7.779039
65.689949,-0.529287,-2.503975,-9.506966
65.723308,0.165655,-2.081982,-10.497453
65.756660,0.830369,-2.262751,-8.862155
65.790046,1.118431,-2.648830,-7.889326
65.822978,0.564603,-2.486617,-8.515881
65.855962,0.443542,-2.347449,-9.153958
65.889911,0.217730,-2.329641,-9.707488
65.923271,-0.437257,-2.174761,-10.270594
65.956578,-0.536919,-1.920368,-10.848814
65.990011,-0.398350,-1.723887,-11.275297
66.023244,-0.514024,-2.424066,-10.306059
66.056643,-0.617427,-2.667086,-9.951406
66.089393,-1.288875,-1.848689,-11.885541
66.123247,-1.781649,-0.541259,-12.855077
66.156584,-1.601030,-1.544315,-10.130079
66.189912,-2.298516,-2.231027,-7.820041
66.223246,-2.088267,-1.831480,-8.615992
66.256585,-1.586664,-1.308927,-9.584032
66.289906,-0.987643,-1.573047,-8.268072
66.323250,-1.111398,-2.305399,-5.951749
66.356651,-1.188913,-2.420475,-6.917993
66.389913,-1.334067,-2.055944,-8.254305
66.423244,-1.133396,-2.524925,-8.768328
66.456574,-0.686711,-2.691478,-9.725295
66.489938,-0.170144,-2.849351,-10.628091
66.523254,-0.578520,-2.700157,-10.863928
66.556580,-0.523900,-2.588673,-10.763069
66.589921,0.438454,-2.678908,-11.156480
66.622507,0.065394,-2.577899,-12.341054
66.656605,-0.273398,-1.537132,-12.361854
66.689915,0.243020,-2.289088,-10.785216
66.723280,-0.295994,-2.619649,-10.028921
66.756608,-1.188614,-1.349031,-10.223756
66.789907,-1.104814,-1.161080,-9.183139
66.823290,-0.778592,-1.278100,-7.359440
66.856646,-0.095622,-1.647569,-6.000981
66.889930,-0.313951,-1.978729,-5.808541
66.923252,-0.269208,-2.318568,-6.260911
66.956641,-0.233593,-2.499785,-7.404932
66.989437,-0.466437,-2.498588,-8.963164
67.023325,-1.020565,-2.148573,-10.663407
67.056604,0.104151,-2.187181,-12.012288
67.089914,0.240476,-2.455042,-11.851721
67.123269,0.185707,-3.045384,-11.051880
67.156631,-0.793108,-3.179015,-11.065797
67.189945,-0.815554,-1.857668,-12.840263
67.223250,-0.494869,-1.155393,-13.510364
67.256587,-1.325388,-1.376117,-10.952517
67.289939,-2.020778,-1.481764,-8.260291
67.323319,-1.609709,-1.151802,-8.737801
67.356589,-1.515434,-1.138633,-7.729507
67.389360,-0.596327,-2.009555,-5.662938
67.423306,-0.105798,-2.499037,-4.975778
67.456687,-0.388473,-2.535999,-6.370749
67.489649,-0.568643,-2.535849,-8.805590
67.522715,0.020202,-2.786202,-10.103293
67.555773,-0.631493,-2.562037,-11.365980
67.589982,-1.291419,-1.833425,-12.116140
67.623267,-0.015413,-2.129269,-12.375023
67.656539,0.766172,-3.142801,-11.865339
67.690109,-1.536833,-1.768181,-12.914785
67.723311,-0.845782,-0.209799,-13.590872
67.756655,0.397601,-1.525759,-10.237373
67.789589,-0.916862,-1.714310,-8.640683
67.822742,-1.176942,-1.073838,-8.883554
67.856603,-0.757642,-1.126811,-7.400143
67.889987,-0.234939,-1.724336,-6.416690
67.923299,-0.768117,-1.638441,-5.674909
67.956616,-0.853114,-1.770426,-6.618259
67.989412,-1.017273,-1.740796,-7.861343
68.023270,-1.128906,-1.847641,-8.482959
68.056599,-1.342896,-1.930843,-9.767644
68.089929,-1.374022,-1.673457,-11.214392
68.123325,-0.465090,-1.264633,-12.764543
68.156608,0.420048,-2.284150,-12.323396
68.189914,-0.838599,-1.775065,-12.866450
68.223242,-0.897259,-0.316644,-14.265312
68.256574,-0.260229,-0.559665,-12.571953
68.289914,-1.728077,-1.434926,-8.641282
68.323246,-2.061332,-1.123370,-8.608061
68.356588,-1.372226,-0.794305,-8.797509
68.389915,-0.726816,-1.149557,-7.533026
68.423249,-0.308414,-1.923959,-5.971203
68.456609,-0.208752,-2.150519,-6.157358
68.489932,-0.589892,-1.962118,-7.854609
68.523250,-1.529650,-2.012847,-9.138844
68.556602,-0.902197,-2.144832,-10.045681
68.589935,-0.008081,-2.102633,-10.960298
68.623319,-0.175082,-1.694557,-11.815807
68.656581,0.235388,-2.384710,-11.871025
68.689915,-0.799991,-2.337273,-12.707679
68.723323,-0.735794,-0.376352,-12.934837
68.756591,0.587947,-1.442558,-10.172279
68.789931,-0.167151,-2.246739,-8.472784
68.823252,-0.743875,-1.741994,-8.936078
68.856571,-0.452969,-1.619885,-9.029605
68.889936,-0.083052,-1.794967,-8.332867
68.923315,-0.510133,-1.790029,-7.186154
68.956580,-0.913869,-2.255568,-6.161399
68.989994,-0.477361,-2.360169,-6.986829
69.023335,-0.699581,-1.921266,-8.890287
69.056650,-0.667707,-1.595194,-10.083091
69.089706,-0.637778,-1.577087,-10.461239
69.122426,-0.616529,-1.078926,-11.971735
69.156663,0.180769,-1.024306,-12.636299
69.189920,-0.453418,-1.143272,-12.874830
69.223269,-0.941853,-0.458057,-13.249087
69.256576,-0.086793,-0.909231,-12.041319
69.289921,-0.823485,-1.519325,-8.716702
69.323264,-1.803198,-1.344692,-7.887380
69.356654,-1.678246,-1.071443,-8.702934
69.389924,-0.864188,-1.411732,-8.307129
69.423269,-0.278635,-2.096198,-6.549722
69.456604,0.066890,-2.604984,-5.854331
69.489916,-0.475565,-2.554704,-6.323612
69.523322,-1.179336,-1.811428,-6.231881
69.556613,1.649065,-1.003655,-9.595405
69.589987,2.990465,-0.024093,-10.350204
69.623264,4.391422,1.100923,-11.137625
69.656633,6.411153,2.224742,-14.154876
69.689057,6.650133,2.631621,-15.186066
69.723258,4.266919,1.896126,-12.758558
69.756589,1.853029,-0.211445,-8.954933
69.789948,1.115738,-1.354568,-9.481676
69.823265,0.194536,-1.264483,-10.278525
69.856637,-1.391679,-0.242272,-8.656545
69.889928,-1.140429,-1.657595,-8.674652
69.923270,0.099812,-0.840096,-6.517250
69.956580,-0.305272,-1.971546,-6.384965
69.989022,-0.825879,-1.785390,-7.486637
70.022362,0.212044,-1.824148,-9.445612
70.055692,-0.421245,-1.786138,-7.625954
70.089027,-0.595280,-1.992496,-8.554638
70.123248,-0.257386,-1.417268,-10.862432
70.156183,-0.204113,-2.198554,-10.533068
70.189995,0.156377,-3.436700,-10.474557
70.223316,-0.117470,-3.254285,-12.576741
70.256676,-0.690303,-2.318867,-13.129223
70.289991,0.188849,-2.454593,-12.152803
70.323376,-0.338642,-3.245456,-9.498586
70.356674,-0.953674,-2.664842,-8.996534
70.389940,-1.270618,-2.588224,-8.413675
70.423611,-0.428428,-2.934947,-6.377333
70.456597,0.295694,-3.194578,-5.716361
70.489940,0.499059,-3.248599,-5.547264
70.523106,0.465390,-3.164499,-7.153980
70.556141,0.252148,-3.271943,-8.363544
70.589951,1.066056,-3.214031,-8.318352
70.623316,1.356962,-3.240518,-10.171231
70.656678,1.215999,-3.204604,-10.405572
70.689949,1.528303,-3.411859,-11.355805
70.723124,1.748727,-3.059600,-13.633520
70.756158,1.432532,-1.482962,-13.187434
70.789158,2.320663,-1.061268,-11.594934
70.823291,2.616657,-1.631557,-11.158126
70.856582,1.339903,-1.847941,-10.005726
70.889930,0.860447,-1.746034,-9.449054
70.923341,0.977767,-1.349779,-7.942299
70.956598,0.543204,-1.881910,-6.372246
70.989917,0.273847,-2.212471,-6.353989
71.023303,0.520309,-2.351639,-6.711486
71.056607,0.751357,-2.462824,-7.907582
71.089003,0.402240,-2.529415,-8.653103
71.123321,0.308115,-2.489310,-9.110861
71.156587,0.825430,-2.682051,-9.993156
71.189934,1.011736,-2.808349,-10.516607
71.223139,1.260293,-3.091474,-10.765014
71.256896,0.348967,-3.618217,-10.787311
71.289916,-0.532130,-3.548782,-12.167468
71.323319,-0.713498,-2.925370,-13.948818
71.356597,-0.312604,-2.684744,-11.904096
71.389948,-0.725768,-2.855636,-8.880860
71.423252,-1.228868,-2.947816,-8.302191
71.456589,-0.207405,-3.042840,-8.173198
71.489923,0.097866,-2.779019,-7.249602
71.523246,0.527791,-3.285261,-6.209284
71.556124,0.651545,-3.506434,-6.031658
71.589917,-0.559515,-3.129184,-7.829918
71.623251,-0.644961,-3.520799,-8.010387
71.656600,1.008444,-4.173093,-9.102930
71.689939,0.029480,-3.239022,-9.580740
71.723263,1.181281,-3.161656,-10.958353
71.756149,0.763778,-2.987023,-11.932379
71.789351,0.884390,-2.452199,-11.825684
