time_tick,acc_X_value,acc_Y_value,acc_Z_value
0.013130,0.470627,9.150666,-3.383577
0.046395,0.543354,9.157999,-3.475457
0.079723,0.733999,9.211721,-3.542497
0.113136,0.593035,9.082728,-3.495809
0.146379,0.496515,9.138545,-3.611333
0.179770,0.680875,9.231324,-3.552224
0.213101,0.558467,9.139443,-3.506134
0.246535,0.483945,9.209326,-3.537260
0.279751,0.587648,9.181044,-3.516609
0.313136,0.609945,9.140341,-3.526037
0.346402,0.506092,9.105923,-3.614925
0.379765,0.621766,9.144232,-3.617169
0.413077,0.593634,9.139742,-3.553721
0.446447,0.543653,9.146476,-3.557611
0.479769,0.545000,9.133008,-3.634378
0.513095,0.611441,9.140790,-3.598165
0.546439,0.554277,9.103529,-3.564196
0.579777,0.515670,9.114752,-3.697827
0.613111,0.552631,9.130165,-3.572426
0.646418,0.609196,9.168174,-3.587540
0.679695,0.497563,9.140191,-3.557462
0.713096,0.536320,9.178200,-3.547286
0.746409,0.559964,9.167127,-3.463187
0.779755,0.537517,9.148422,-3.574371
0.813087,0.545748,9.099788,-3.640813
0.846404,0.598123,9.166079,-3.543246
0.879642,0.525247,9.160992,-3.565842
0.913105,0.559814,9.134654,-3.524690
0.946407,0.512377,9.157550,-3.477253
0.979770,0.584505,9.217257,-3.521996
1.013080,0.539463,9.138695,-3.514065
1.046401,0.492625,9.107419,-3.552075
1.079759,0.535422,9.205585,-3.472465
1.113091,0.513425,9.197355,-3.513616
1.146436,0.554277,9.161440,-3.554918
1.179765,0.585852,9.232820,-3.560754
1.213082,0.550836,9.214264,-3.492068
1.246408,0.490979,9.172514,-3.555516
1.279739,0.553978,9.182690,-3.460194
1.313497,0.478857,9.176854,-3.542797
1.346773,0.534076,9.174759,-3.533070
1.380130,0.529586,9.138844,-3.573623
1.413489,0.452520,9.162338,-3.582303
1.446864,0.536620,9.181642,-3.492816
1.480159,0.478857,9.128968,-3.515262
1.513499,0.524199,9.172065,-3.580357
1.546808,0.557121,9.160393,-3.495659
1.580128,0.502950,9.112058,-3.559557
1.613480,0.524798,9.121486,-3.556265
1.646825,0.586002,9.191219,-3.595770
1.680120,0.405083,9.132410,-3.529927
1.713467,0.508936,9.149768,-3.564345
1.746877,0.516717,9.128220,-3.558060
1.779876,0.496216,9.139293,-3.556414
1.813470,0.584505,9.157999,-3.612680
1.846795,0.507888,9.141688,-3.560455
1.880141,0.495169,9.151265,-3.613728
1.913470,0.478109,9.166379,-3.566141
1.946798,0.474368,9.126125,-3.577514
1.980177,0.548292,9.146027,-3.499550
2.013474,0.504147,9.159046,-3.557911
2.046845,0.534674,9.136749,-3.617020
2.080182,0.569391,9.102332,-3.562550
2.113459,0.417205,9.109065,-3.608191
2.146811,0.509834,9.133607,-3.652485
2.180181,0.604258,9.174160,-3.716981
2.213498,0.536320,9.133008,-3.619564
2.246809,0.486639,9.149619,-3.549381
2.279782,0.556073,9.178649,-3.589934
2.313460,0.534824,9.153210,-3.618965
2.346827,0.420048,9.134505,-3.594274
2.380138,0.512078,9.150816,-3.559557
2.413511,0.476313,9.124479,-3.566141
2.446804,0.537817,9.181493,-3.604300
2.480183,0.495917,9.135852,-3.577664
2.513466,0.495767,9.128369,-3.574371
2.546779,0.463145,9.127771,-3.551775
2.580137,0.482449,9.147673,-3.573773
2.613459,0.447432,9.140191,-3.535913
2.646719,0.496665,9.130315,-3.535315
2.680139,0.483796,9.128669,-3.469322
2.713460,0.521506,9.165780,-3.505236
2.746792,0.463295,9.145129,-3.596519
2.779522,0.529586,9.212319,-3.572875
2.813485,0.426782,9.153659,-3.640364
2.846795,0.451922,9.158148,-3.546538
2.880148,0.528389,9.153958,-3.628393
2.913456,0.468682,9.072852,-3.638568
2.946802,0.509684,9.131362,-3.534267
2.980184,0.510881,9.171915,-3.543844
3.013456,0.439801,9.093802,-3.618965
3.046797,0.515670,9.223243,-3.533369
3.080150,0.455214,9.163236,-3.545341
3.113462,0.374856,9.120738,-3.612381
3.146795,0.441896,9.067614,-3.729551
3.180189,0.557270,9.149020,-3.653682
3.213458,0.424387,9.108018,-3.741523
3.246827,0.459404,9.124329,-3.732394
3.279351,0.465090,9.163835,-3.660715
3.313475,0.367972,9.146775,-3.662810
3.346816,0.417653,9.170269,-3.637521
3.380134,0.504895,9.127472,-3.616122
3.413490,0.391915,9.068662,-3.567488
3.446814,0.408825,9.115201,-3.579310
3.480149,0.405383,9.120887,-3.554469
3.513507,0.433366,9.126424,-3.710098
3.546817,0.366176,9.191668,-3.660117
3.580173,0.431121,9.099339,-3.673884
3.613467,0.441596,9.108766,-3.750501
3.646796,0.389820,9.115051,-3.690045
3.680136,0.385480,9.125227,-3.652186
3.713484,0.398200,9.093652,-3.655628
3.746808,0.402689,9.141239,-3.618815
3.779190,0.337295,9.137498,-3.624203
3.813506,0.405832,9.158148,-3.507481
3.846787,0.345974,9.105923,-3.581854
3.879933,0.402689,9.094550,-3.698874
3.913463,0.340438,9.108168,-3.604150
3.946797,0.361238,9.134654,-3.692290
3.980103,0.359891,9.132110,-3.631535
4.013459,0.421544,9.116697,-3.722219
4.046801,0.372162,9.133757,-3.638868
4.080083,0.410171,9.153958,-3.619264
4.113432,0.347172,9.134505,-3.657274
4.146771,0.353307,9.178350,-3.602504
4.180095,0.398050,9.151414,-3.625100
4.213428,0.363632,9.121486,-3.672238
4.246759,0.375454,9.130015,-3.681216
4.279482,0.394160,9.144830,-3.691542
4.313428,0.368720,9.119092,-3.688998
4.346765,0.353157,9.133308,-3.656076
4.380122,0.368421,9.126723,-3.690195
4.413422,0.409722,9.141538,-3.647098
4.446759,0.415858,9.123880,-3.619713
4.480086,0.354354,9.095448,-3.632433
4.513454,0.375753,9.162787,-3.641860
4.546777,0.398948,9.129118,-3.555067
4.580093,0.427380,9.207830,-3.643656
4.613426,0.293300,9.127621,-3.648295
4.646758,0.256189,9.146327,-3.581105
4.680099,0.388623,9.176854,-3.505536
4.713422,0.386677,9.171915,-3.611932
4.746781,0.396853,9.152462,-3.584547
4.780110,0.310659,9.116248,-3.630488
4.813445,0.417953,9.182690,-3.600559
4.846823,0.356300,9.120738,-3.645452
4.880138,0.332656,9.119391,-3.626746
4.913488,0.376053,9.127172,-3.633031
4.946869,0.397901,9.107868,-3.682863
4.980140,0.366925,9.167277,-3.595621
5.013471,0.339390,9.112208,-3.593825
5.046779,0.312305,9.103678,-3.482042
5.080139,0.392065,9.168623,-3.518704
5.113484,0.413912,9.162039,-3.612081
5.146783,0.356300,9.149768,-3.620162
5.180151,0.318291,9.121635,-3.610884
5.212818,0.392962,9.150816,-3.615224
5.246796,0.382038,9.137797,-3.648295
5.280146,0.349416,9.123880,-3.584398
5.313466,0.390718,9.178350,-3.547885
5.346828,0.368271,9.109215,-3.534417
5.379351,0.379943,9.144531,-3.569284
5.413485,0.465090,9.193015,-3.606395
5.446809,0.311557,9.153809,-3.579759
5.480132,0.332357,9.095149,-3.622706
5.513468,0.402689,9.204089,-3.535764
5.546803,0.420048,9.161141,-3.600110
5.579849,0.377848,9.105324,-3.755888
5.613460,0.394309,9.155604,-3.558360
5.646821,0.406131,9.183438,-3.627794
5.680134,0.430523,9.149918,-3.669095
5.713458,0.430672,9.171467,-3.575419
5.746862,0.341934,9.118343,-3.550429
5.780137,0.418102,9.143184,-3.583500
5.813477,0.462995,9.146626,-3.704561
5.846809,0.469879,9.172065,-3.700072
5.880138,0.335499,9.136450,-3.636024
5.913461,0.391616,9.141987,-3.568086
5.946693,0.448779,9.121486,-3.643955
5.980126,0.424687,9.121486,-3.667749
6.013468,0.422891,9.160243,-3.597566
6.046820,0.393262,9.108766,-3.610735
6.079664,0.446086,9.142137,-3.630039
6.113449,0.370815,9.137049,-3.630936
6.146793,0.404335,9.129567,-3.665354
6.180101,0.461200,9.146626,-3.574371
6.213506,0.442793,9.156053,-3.579459
6.246878,0.334003,9.149619,-3.712492
6.280129,0.317093,9.107270,-3.602205
6.313460,0.508337,9.226685,-3.578711
6.346836,0.255291,9.087816,-3.579160
6.380158,0.357048,9.125526,-3.620761
6.413486,0.576125,9.187329,-3.649193
6.446851,0.271752,9.083776,-3.645901
6.480126,0.285968,9.071804,-3.677176
6.513458,0.455363,9.157250,-3.681067
6.546738,0.358545,9.095149,-3.685706
6.579488,0.371563,9.111460,-3.664456
6.613478,0.397901,9.166678,-3.583200
6.646866,0.338792,9.167426,-3.620013
6.680075,0.300333,9.148870,-3.536961
6.713513,0.371563,9.111759,-3.736285
6.746793,0.390418,9.131213,-3.688250
6.780140,0.324725,9.140790,-3.705908
6.813476,0.267412,9.114453,-3.634827
6.846777,0.438304,9.159944,-3.554170
6.880179,0.299136,9.096944,-3.668646
6.913460,0.345226,9.148571,-3.634528
6.946834,0.357198,9.188376,-3.580208
6.980188,0.288362,9.106970,-3.587989
7.013459,0.332507,9.131213,-3.652186
7.046811,0.330711,9.153659,-3.582751
7.080128,0.303326,9.118942,-3.716383
7.113464,0.315747,9.106222,-3.688549
7.146808,0.310958,9.095149,-3.574970
7.180105,0.341784,9.162488,-3.609687
7.213499,0.326222,9.128968,-3.675231
7.246774,0.326970,9.150666,-3.603253
7.280140,0.248557,9.124329,-3.601307
7.313461,0.345974,9.148571,-3.672088
7.346826,0.331758,9.134205,-3.701867
7.380536,0.329514,9.076892,-3.610735
7.413470,0.335499,9.152013,-3.612381
7.446810,0.320086,9.166229,-3.592927
7.480332,0.364830,9.158747,-3.626896
7.513462,0.319637,9.156353,-3.619414
7.546813,0.325324,9.173262,-3.540253
7.580117,0.361088,9.166379,-3.583799
7.613489,0.318590,9.111909,-3.514664
7.646794,0.336697,9.121486,-3.566590
7.680193,0.311856,9.126873,-3.656675
7.713476,0.437107,9.215312,-3.595621
7.746876,0.316196,9.141538,-3.637970
7.780119,0.281628,9.117296,-3.590832
7.813493,0.372461,9.160543,-3.611184
7.846783,0.373658,9.103678,-3.585894
7.880198,0.336397,9.122833,-3.613578
7.913541,0.347321,9.129716,-3.618366
7.946838,0.290158,9.124928,-3.577963
7.980147,0.372012,9.172963,-3.491320
8.013271,0.361687,9.087816,-3.614476
8.046800,0.352708,9.086769,-3.619115
8.080235,0.368271,9.149469,-3.633331
8.113465,0.335499,9.143483,-3.661464
8.146803,0.333105,9.136899,-3.578561
8.180119,0.343879,9.137198,-3.557761
8.213475,0.360640,9.148721,-3.587989
8.246808,0.359891,9.128669,-3.578861
8.280109,0.370067,9.188825,-3.537559
8.312649,0.298687,9.130464,-3.571379
8.346789,0.306469,9.125077,-3.583200
8.380090,0.426632,9.182690,-3.510624
8.413497,0.338043,9.132559,-3.546538
8.446825,0.370366,9.121486,-3.605497
8.480189,0.376053,9.158747,-3.645302
8.513515,0.341635,9.131063,-3.676278
8.546808,0.400295,9.143483,-3.618815
8.580140,0.364530,9.151863,-3.581704
8.612513,0.368571,9.125227,-3.680169
8.646799,0.407178,9.128220,-3.627046
8.680136,0.376951,9.160842,-3.615374
8.713472,0.364381,9.138395,-3.663559
8.746817,0.346274,9.179996,-3.545640
8.780154,0.320535,9.141089,-3.564046
8.813487,0.357796,9.132709,-3.716682
8.846792,0.361238,9.110861,-3.616271
8.880161,0.364830,9.110412,-3.668796
8.913457,0.395806,9.116548,-3.643357
8.946792,0.325773,9.119092,-3.647397
8.980144,0.320236,9.112507,-3.667000
9.013481,0.364381,9.147224,-3.621210
9.046807,0.304673,9.148272,-3.581704
9.080179,0.308264,9.146626,-3.658022
9.113504,0.325473,9.193763,-3.600709
9.146797,0.316495,9.133158,-3.670143
9.180142,0.268011,9.125676,-3.600709
9.213493,0.334751,9.141089,-3.576466
9.246795,0.299286,9.107270,-3.613877
9.280149,0.304224,9.101434,-3.675231
9.313459,0.323229,9.125676,-3.677326
9.346796,0.298837,9.139742,-3.595770
9.380141,0.259780,9.115799,-3.597716
9.413463,0.289559,9.155006,-3.581105
9.446797,0.304074,9.171467,-3.547436
9.480160,0.272350,9.145728,-3.599511
9.513496,0.272649,9.131512,-3.548932
9.546808,0.300483,9.155604,-3.568236
9.580128,0.304673,9.154108,-3.557162
9.613436,0.301231,9.147823,-3.582303
9.646815,0.300483,9.146775,-3.694984
9.680115,0.276690,9.091857,-3.590533
9.713459,0.273248,9.160842,-3.557761
9.746824,0.289709,9.196158,-3.650689
9.780130,0.344478,9.138395,-3.615374
9.813433,0.316345,9.205436,-3.579459
9.846812,0.246312,9.146925,-3.595022
9.880124,0.332207,9.150517,-3.609538
9.913433,0.291205,9.102930,-3.545640
9.946769,0.240327,9.098590,-3.607443
9.980125,0.389670,9.189424,-3.559257
10.013431,0.356898,9.192117,-3.540702
10.046774,0.279982,9.112208,-3.490422
10.080118,0.309312,9.170569,-3.526935
10.113447,0.391616,9.256913,-3.625400
10.146838,0.384133,9.153659,-3.573773
10.180110,0.254094,9.091707,-3.437448
10.213517,0.347770,9.187478,-3.483389
10.246802,0.418701,9.150517,-3.611782
10.280115,0.492176,9.236861,-3.691841
10.313518,0.379794,9.129267,-3.713539
10.346802,0.246761,9.124479,-3.576915
10.380115,0.299585,9.188376,-3.533070
10.413486,0.474667,9.242248,-3.530077
10.446797,0.387575,9.150517,-3.480845
10.480194,0.246312,9.132110,-3.590084
10.513443,0.445188,9.193763,-3.555666
10.546055,0.471375,9.229528,-3.575868
10.580108,0.276540,9.111310,-3.657274
10.613367,0.276091,9.169970,-3.394501
10.646825,0.446086,9.260205,-3.491020
10.680134,0.335051,9.072553,-3.555217
10.713389,0.385929,9.250029,-3.492517
10.746781,0.331160,9.137797,-3.632283
10.780094,0.349865,9.117595,-3.708452
10.813418,0.337594,9.200647,-3.620013
10.845948,0.316345,9.200497,-3.647248
10.880107,0.265167,9.166379,-3.619713
10.913434,0.313801,9.187329,-3.459595
10.946782,0.290457,9.180295,-3.443733
10.980144,0.325473,9.154258,-3.621509
11.013449,0.324576,9.220849,-3.600709
11.046778,0.248856,9.130764,-3.606694
11.080118,0.210548,9.175058,-3.516460
11.113407,0.212343,9.266191,-3.454058
11.146790,0.368720,9.186431,-3.517208
11.180137,0.214887,9.075695,-3.389562
11.213437,0.155928,9.105324,-3.520799
11.246786,0.351062,9.157550,-3.706656
11.280140,0.378148,9.192866,-3.618516
11.313437,0.209051,9.142885,-3.409016
11.346020,0.205609,9.244343,-3.465581
11.380118,0.198875,9.193015,-3.635126
11.413437,0.324276,9.184186,-3.594573
11.446873,0.242571,9.268884,-3.390909
11.480206,0.258284,9.183737,-3.381631
11.513443,0.274146,9.196307,-3.436401
11.546767,0.205011,9.109065,-3.632283
11.580107,0.284172,9.146626,-3.599511
11.612649,0.283274,9.165481,-3.658022
11.646015,0.265018,9.068512,-3.741523
11.679306,0.328915,9.109514,-3.624352
11.712608,0.232994,9.167576,-3.493564
11.746000,0.344777,9.237459,-3.547136
11.779312,0.260977,9.171167,-3.459296
11.812715,0.221920,9.209177,-3.376843
11.845929,0.340438,9.312730,-3.511671
11.879313,0.270854,9.149469,-3.582303
11.912629,0.191393,9.170569,-3.571229
11.945999,0.236286,9.148571,-3.581854
11.979266,0.352409,9.178051,-3.565842
12.013660,0.360939,9.223542,-3.516609
12.045958,0.238681,9.261402,-3.474560
12.079306,0.218329,9.197205,-3.464982
12.112659,0.276839,9.128818,-3.648295
12.145966,0.241973,9.109365,-3.601606
12.179307,0.298687,9.133757,-3.617918
12.212690,0.404186,9.172215,-3.509875
12.245958,0.298837,9.153809,-3.553870
12.279316,0.191992,9.106073,-3.551775
12.312633,0.274296,9.150517,-3.533070
12.345986,0.282825,9.201694,-3.519153
12.379298,0.290906,9.191369,-3.647098
12.412630,0.247809,9.138695,-3.573922
12.445972,0.267861,9.201994,-3.469472
12.479387,0.342533,9.209476,-3.543395
12.512634,0.244068,9.130015,-3.538756
12.545970,0.260379,9.205585,-3.479797
12.579288,0.261127,9.137049,-3.472016
12.612629,0.227757,9.204987,-3.411111
12.645962,0.330112,9.203341,-3.569732
12.679508,0.323079,9.145578,-3.708601
12.712612,0.209500,9.105474,-3.605497
12.745988,0.291804,9.181343,-3.572725
12.779428,0.388922,9.222944,-3.641262
12.812652,0.256787,9.140790,-3.535614
12.845802,0.181218,9.168025,-3.514215
12.880161,0.311706,9.204388,-3.451515
12.913443,0.290008,9.195409,-3.453460
12.946852,0.147698,9.123132,-3.527533
12.980135,0.229403,9.143034,-3.634229
13.013458,0.331908,9.213965,-3.509426
13.046822,0.217730,9.149319,-3.575120
13.080159,0.258583,9.146925,-3.634827
13.113442,0.343580,9.218754,-3.539654
13.146839,0.166403,9.156802,-3.503890
13.180096,0.215486,9.159944,-3.613728
13.213268,0.311706,9.179098,-3.512120
13.246832,0.252597,9.185084,-3.449569
13.280133,0.194536,9.141987,-3.548334
13.313718,0.268759,9.186880,-3.532621
13.346852,0.188550,9.221597,-3.469472
13.380123,0.152337,9.173113,-3.548633
13.413427,0.250802,9.191070,-3.562849
13.446782,0.207405,9.165331,-3.604300
13.479440,0.235837,9.181792,-3.550578
13.513450,0.194386,9.130464,-3.594124
13.546842,0.223267,9.202742,-3.512719
13.580121,0.211146,9.183737,-3.441638
13.613477,0.187203,9.171167,-3.519153
13.646777,0.183163,9.135103,-3.542946
13.680110,0.216982,9.190621,-3.601457
13.713444,0.224315,9.196906,-3.549231
13.746053,0.217880,9.152462,-3.550877
13.779252,0.201868,9.164284,-3.467526
13.813603,0.188849,9.204089,-3.482191
13.846792,0.188400,9.161590,-3.590234
13.879645,0.192590,9.193614,-3.550429
13.913518,0.179422,9.188376,-3.491320
13.946788,0.207405,9.157550,-3.466778
13.980172,0.227906,9.167875,-3.538307
14.013496,0.262025,9.184785,-3.561652
14.046795,0.199474,9.152911,-3.528730
14.080117,0.185108,9.184785,-3.540552
14.113455,0.191393,9.173711,-3.529927
14.146790,0.221771,9.174010,-3.567039
14.180112,0.253495,9.185982,-3.553421
14.213446,0.200821,9.140939,-3.568685
14.246388,0.216084,9.152013,-3.527084
14.280094,0.191393,9.173113,-3.604450
14.313480,0.160118,9.164284,-3.602654
14.346797,0.265766,9.209775,-3.535614
14.380110,0.171640,9.147524,-3.620312
14.413484,0.235837,9.178500,-3.590683
14.446775,0.217581,9.137947,-3.557162
14.480124,0.272350,9.216808,-3.525588
14.513515,0.205460,9.176554,-3.438196
14.546792,0.246462,9.192267,-3.564794
14.580108,0.214139,9.128519,-3.616421
14.613495,0.235688,9.145728,-3.678373
14.646813,0.221920,9.100087,-3.661763
14.680105,0.303626,9.115350,-3.609986
14.713476,0.280730,9.115799,-3.607592
14.746791,0.256787,9.113854,-3.680768
14.780131,0.269357,9.143334,-3.680618
14.813474,0.193488,9.128369,-3.644853
14.846785,0.225512,9.170269,-3.650989
14.880118,0.234042,9.174609,-3.589785
14.913467,0.269956,9.215611,-3.515412
14.946520,0.213690,9.173562,-3.480096
14.979580,0.243170,9.184037,-3.513916
15.012754,0.216833,9.156802,-3.566141
15.046804,0.265018,9.187478,-3.622706
15.080112,0.187503,9.130614,-3.643955
15.113102,0.279383,9.173262,-3.598614
15.146782,0.209799,9.120887,-3.620910
15.180056,0.209051,9.144232,-3.637521
15.213443,0.223716,9.136899,-3.612830
15.246779,0.236735,9.173562,-3.557162
15.280120,0.191543,9.137797,-3.590683
15.313449,0.172838,9.157101,-3.559557
15.346776,0.147398,9.110263,-3.451365
15.380111,0.293899,9.200198,-3.595621
15.413448,0.149493,9.265143,-3.547436
15.446821,0.148745,9.191369,-3.593675
15.480112,0.161764,9.145129,-3.612530
15.513496,0.247659,9.162039,-3.631984
15.546791,0.210847,9.179996,-3.522894
15.580181,0.192291,9.159645,-3.588737
15.613449,0.165954,9.165331,-3.539355
15.646823,0.235987,9.237309,-3.466629
15.680195,0.153983,9.161141,-3.569433
15.713474,0.114477,9.170718,-3.553272
15.746864,0.182564,9.193913,-3.534117
15.780156,0.173436,9.191968,-3.619713
15.813456,0.139018,9.151414,-3.631535
15.846526,0.172838,9.166229,-3.570930
15.880120,0.161165,9.134954,-3.611633
15.913456,0.115973,9.163236,-3.567189
15.946814,0.131985,9.141239,-3.619414
15.980141,0.140515,9.116099,-3.656825
16.013478,0.141562,9.159645,-3.609837
16.046869,0.121510,9.131662,-3.582452
16.080086,0.161764,9.133158,-3.618067
16.113466,0.107593,9.169072,-3.575120
16.145906,0.076019,9.117296,-3.552972
16.179146,0.121360,9.162937,-3.543096
16.212866,0.135577,9.209626,-3.488925
16.246797,0.155030,9.169521,-3.580956
16.280120,0.168199,9.105474,-3.635875
16.313445,0.116572,9.138096,-3.602804
16.346796,0.161315,9.124628,-3.590832
16.380112,0.165804,9.147374,-3.575718
16.413441,0.136774,9.146327,-3.582303
16.446775,0.165355,9.174908,-3.578561
16.480112,0.171790,9.165481,-3.582901
16.512817,0.177477,9.187778,-3.617020
16.546774,0.123755,9.145578,-3.675979
16.580113,0.142161,9.149619,-3.583500
16.613436,0.230899,9.167127,-3.564345
16.646771,0.170743,9.181044,-3.551775
16.680098,0.145453,9.135552,-3.577514
16.713489,0.227158,9.202592,-3.536961
16.746812,0.147099,9.149469,-3.526935
16.780117,0.129890,9.209177,-3.578113
16.813455,0.206507,9.187029,-3.612830
16.846853,0.173586,9.153360,-3.586343
16.880110,0.152486,9.182540,-3.533818
16.913496,0.130638,9.133906,-3.532920
16.946815,0.207555,9.116697,-3.683910
16.980113,0.156527,9.163685,-3.421137
17.013468,0.186006,9.166229,-3.599661
17.046799,0.183313,9.151564,-3.593376
17.080113,0.221023,9.152013,-3.620162
17.113456,0.136025,9.162039,-3.571528
17.146819,0.298987,9.220101,-3.636473
17.180077,0.222669,9.141239,-3.658920
17.213497,0.122258,9.117745,-3.497455
17.246800,0.250951,9.199001,-3.507481
17.280109,0.279533,9.127920,-3.678373
17.313454,0.217581,9.141688,-3.588588
17.346819,0.235388,9.143034,-3.567338
17.380092,0.325174,9.161440,-3.571229
17.413473,0.267861,9.163236,-3.690644
17.446791,0.245115,9.146775,-3.538906
17.479580,0.271602,9.130165,-3.589934
17.513473,0.231797,9.144680,-3.564944
17.546817,0.268908,9.131662,-3.636174
17.580241,0.209051,9.119840,-3.610136
17.613101,0.261426,9.133757,-3.698276
17.646793,0.292702,9.176854,-3.607742
17.680086,0.232246,9.162638,-3.647846
17.713337,0.272949,9.145878,-3.545191
17.746794,0.269806,9.222794,-3.530975
17.780083,0.254692,9.178649,-3.463785
17.813487,0.288063,9.145429,-3.567488
17.846775,0.251400,9.099488,-3.605497
17.880144,0.334153,9.135852,-3.657423
17.913437,0.321433,9.103229,-3.723715
17.946775,0.272201,9.130165,-3.801679
17.980172,0.209350,9.119241,-3.690494
18.013446,0.313951,9.153360,-3.666701
18.046778,0.273847,9.124928,-3.600260
18.080107,0.251999,9.168174,-3.660566
18.113440,0.226859,9.166678,-3.522296
18.146776,0.263821,9.172065,-3.508828
18.180222,0.277288,9.135852,-3.524391
18.212392,0.257685,9.118343,-3.656675
18.246781,0.291804,9.126723,-3.636922
18.280138,0.258433,9.137049,-3.693786
18.313440,0.258284,9.104127,-3.740176
18.346782,0.262174,9.100536,-3.618516
18.380120,0.303775,9.138695,-3.665953
18.413453,0.254543,9.159944,-3.638419
18.446782,0.229103,9.126424,-3.610585
18.480116,0.285519,9.168025,-3.509426
18.513443,0.219077,9.128220,-3.556714
18.546744,0.189747,9.165331,-3.473362
18.580187,0.251400,9.135253,-3.562849
18.613179,0.268609,9.153060,-3.650839
18.646773,0.205011,9.135103,-3.602205
18.680106,0.242721,9.145279,-3.640963
18.713449,0.257087,9.162787,-3.593226
18.746775,0.250502,9.179398,-3.562250
18.780123,0.219975,9.135702,-3.601008
18.813446,0.253495,9.204987,-3.537260
18.846794,0.264120,9.181642,-3.524840
18.880107,0.191992,9.150666,-3.740924
18.913445,0.226110,9.130464,-3.561502
18.946796,0.203963,9.091258,-3.432660
18.980117,0.263970,9.146177,-3.658022
19.013446,0.218778,9.148721,-3.546687
19.046168,0.209500,9.131063,-3.606994
19.080117,0.239129,9.178799,-3.608041
19.113453,0.177925,9.141538,-3.538307
19.146778,0.244068,9.152312,-3.597865
19.180109,0.226559,9.180595,-3.530077
19.213456,0.171940,9.135403,-3.642609
19.246774,0.252747,9.154557,-3.535464
19.280134,0.201868,9.161889,-3.518555
19.313462,0.168797,9.127172,-3.579609
19.346740,0.230600,9.205286,-3.527533
19.380111,0.249156,9.151265,-3.560305
19.413520,0.221771,9.108617,-3.696031
19.446773,0.158322,9.090061,-3.608789
19.480109,0.239578,9.149020,-3.582602
19.513507,0.308264,9.195559,-3.835349
19.546771,0.199923,9.105923,-3.592029
19.580116,0.209051,9.167576,-3.559257
19.613490,0.227757,9.169671,-3.569134
19.646884,0.195284,9.103080,-3.630637
19.680116,0.188849,9.139892,-3.584846
19.713443,0.253944,9.119690,-3.567189
19.746779,0.288512,9.167127,-3.590084
19.780114,0.292103,9.194212,-3.606545
19.813566,0.232844,9.156802,-3.649642
19.846784,0.173885,9.140640,-3.640364
19.880182,0.249604,9.149619,-3.609837
19.913503,0.319039,9.160094,-3.608191
19.946779,0.297041,9.167426,-3.635426
19.980109,0.221472,9.119989,-3.622706
20.013517,0.199025,9.106522,-3.557911
20.046780,0.253346,9.178799,-3.707254
20.080114,0.322181,9.146327,-3.621808
20.113442,0.384882,9.150517,-3.718478
20.146790,0.262324,9.121336,-3.660865
20.180111,0.275044,9.142137,-3.674333
20.213449,0.307367,9.141987,-3.644105
20.246758,0.287913,9.166828,-3.606694
20.280116,0.275343,9.183288,-3.574222
20.313452,0.322032,9.169820,-3.522745
20.346739,0.242422,9.125077,-3.672986
20.380149,0.266514,9.171616,-3.528281
20.413455,0.247659,9.149768,-3.685257
20.446778,0.247509,9.143334,-3.654430
20.480142,0.259930,9.154856,-3.570181
20.513579,0.278785,9.148721,-3.664756
20.546833,0.251849,9.145878,-3.669694
20.580170,0.278785,9.163685,-3.614027
20.613393,0.228355,9.133008,-3.552524
20.646939,0.253196,9.167277,-3.589785
20.680098,0.235538,9.155754,-3.576317
20.713421,0.207555,9.114453,-3.476056
20.746809,0.237783,9.129716,-3.562699
20.780146,0.246163,9.111909,-3.399289
20.813463,0.264569,9.240751,-3.565692
20.846790,0.119565,9.186431,-3.514664
20.880113,0.290607,9.132709,-3.631984
20.913492,0.201868,9.074797,-3.501046
20.946803,0.290756,9.057439,-3.677775
20.980115,0.254692,9.068512,-3.633480
21.013476,0.329813,9.085272,-3.750052
21.045983,0.228954,9.100685,-3.571379
21.080084,0.322032,9.228331,-3.685706
21.113450,0.350015,9.172514,-3.658770
21.146825,0.257236,9.190771,-3.664606
21.179522,0.286566,9.183887,-3.565842
21.213450,0.265766,9.103379,-3.434006
21.246784,0.228205,9.125377,-3.628243
21.280104,0.215336,9.167725,-3.567189
21.312667,0.234341,9.112358,-3.773696
21.346802,0.331160,9.095897,-3.868121
21.380122,0.285519,9.198552,-3.659369
21.413493,0.270704,9.155604,-3.610435
21.446813,0.196780,9.056990,-3.549980
21.480125,0.371713,9.248533,-3.370857
21.513438,0.168947,9.178799,-3.504937
21.546468,0.191693,9.119391,-3.481294
21.580118,0.179123,9.142286,-3.490122
21.613445,0.272350,9.192267,-3.468125
21.646785,0.296742,9.141837,-3.703813
21.680176,0.202766,9.139742,-3.610585
21.713441,0.137971,9.126274,-3.633031
21.746772,0.294946,9.224141,-3.667898
21.779573,0.271003,9.199300,-3.519153
21.812719,0.183762,9.136300,-3.438496
21.846783,0.237184,9.169820,-3.385223
21.880117,0.329963,9.210224,-3.623903
21.913438,0.129292,9.129118,-3.527084
21.946901,0.226709,9.176854,-3.487579
21.979256,0.269058,9.210224,-3.610735
22.013441,0.205011,9.154856,-3.527533
22.046841,0.269806,9.156951,-3.651587
22.080110,0.258583,9.142436,-3.587690
22.113463,0.223567,9.149170,-3.525737
22.146790,0.254692,9.172963,-3.537260
22.180112,0.258583,9.188975,-3.456153
22.212984,0.203664,9.150068,-3.527084
22.246789,0.243469,9.146177,-3.534417
22.280124,0.236885,9.120588,-3.496258
22.312826,0.251849,9.188676,-3.641112
22.346804,0.249604,9.201246,-3.575419
22.380084,0.232096,9.184486,-3.499400
22.413450,0.279234,9.259906,-3.431462
22.446810,0.228355,9.173412,-3.589635
22.479160,0.210697,9.138395,-3.528880
22.513477,0.261576,9.154856,-3.583350
22.546778,0.289559,9.178949,-3.572576
22.580113,0.238381,9.122384,-3.573474
22.613440,0.238531,9.158448,-3.543545
22.646897,0.295994,9.175357,-3.543096
22.679442,0.220723,9.176255,-3.599811
22.713463,0.236137,9.190172,-3.566889
22.746294,0.251849,9.153809,-3.565991
22.780066,0.206807,9.204089,-3.536811
22.813441,0.328766,9.225937,-3.488177
22.846804,0.261426,9.177901,-3.504638
22.880174,0.174933,9.195559,-3.513766
22.913478,0.216833,9.185683,-3.591880
22.946770,0.185108,9.048610,-3.469921
22.980206,0.203065,9.203789,-3.562250
23.013436,0.284322,9.106671,-3.674034
23.046790,0.260229,9.170120,-3.518106
23.080106,0.190944,9.150965,-3.576616
23.113454,0.238980,9.181642,-3.623754
23.146816,0.218628,9.229229,-3.615523
23.180130,0.235089,9.157699,-3.657723
23.213439,0.198127,9.153060,-3.603402
23.246855,0.239129,9.154557,-3.603402
23.280131,0.276540,9.129118,-3.671639
23.313523,0.154432,9.115799,-3.611633
23.346795,0.211894,9.151265,-3.549082
23.380134,0.292402,9.189124,-3.611184
23.413496,0.165655,9.125825,-3.534716
23.446786,0.211146,9.145878,-3.498652
23.480099,0.313801,9.172813,-3.493265
23.513488,0.218778,9.140490,-3.643656
23.546781,0.226110,9.181942,-3.568386
23.580117,0.195583,9.140640,-3.651587
23.613423,0.286417,9.151714,-3.595770
23.646109,0.291804,9.128519,-3.681665
23.680234,0.226260,9.163835,-3.610585
23.713435,0.263821,9.142436,-3.615374
23.746782,0.231198,9.171467,-3.678673
23.780131,0.258882,9.152761,-3.535464
23.813506,0.211595,9.106222,-3.584697
23.846757,0.308564,9.157699,-3.562400
23.880098,0.256338,9.174310,-3.583350
23.913480,0.333105,9.203939,-3.582751
23.946782,0.226410,9.114153,-3.602205
23.980127,0.187203,9.184635,-3.579459
24.013443,0.290756,9.227583,-3.570481
24.046782,0.331609,9.133457,-3.584248
24.080068,0.287165,9.156353,-3.615673
24.113314,0.212792,9.127472,-3.662661
24.146744,0.287763,9.198702,-3.609089
24.180121,0.316046,9.214863,-3.542946
24.213427,0.217730,9.150367,-3.595321
24.246786,0.254992,9.156652,-3.576466
24.280075,0.341186,9.172664,-3.468424
24.313450,0.271752,9.172215,-3.551326
24.346823,0.275343,9.193464,-3.542647
24.380190,0.277887,9.173262,-3.554020
24.413402,0.315447,9.171766,-3.599511
24.446780,0.283873,9.159196,-3.630936
24.480068,0.274445,9.140042,-3.609986
24.513472,0.242422,9.129417,-3.590683
24.546862,0.238830,9.158148,-3.720423
24.580118,0.273847,9.157250,-3.613877
24.613459,0.256787,9.119989,-3.525289
24.646774,0.249305,9.134056,-3.516909
24.680114,0.263521,9.166379,-3.561801
24.713511,0.275193,9.161889,-3.615523
24.746748,0.279683,9.166828,-3.584398
24.780132,0.242571,9.122084,-3.551925
24.813406,0.230300,9.142585,-3.449270
24.846851,0.307516,9.134056,-3.588737
24.880110,0.266215,9.124179,-3.619564
24.913397,0.268011,9.119092,-3.553421
24.946784,0.240027,9.142137,-3.664905
24.980115,0.277887,9.175806,-3.673734
25.013452,0.288512,9.186880,-3.625998
25.046789,0.224764,9.132859,-3.574820
25.080158,0.248258,9.176405,-3.480695
25.113454,0.260229,9.167725,-3.565991
25.146778,0.188101,9.135253,-3.629590
25.180104,0.228804,9.204837,-3.569284
25.213448,0.237633,9.183887,-3.554319
25.246775,0.261576,9.167875,-3.483389
25.280161,0.223567,9.121336,-3.545041
25.313444,0.252897,9.154557,-3.669245
25.346793,0.226260,9.168324,-3.631834
25.380107,0.249904,9.188376,-3.598015
25.413452,0.228355,9.189573,-3.550429
25.446784,0.167002,9.161440,-3.486232
25.480184,0.291056,9.197804,-3.510324
25.513470,0.188999,9.131362,-3.514814
25.546187,0.209949,9.157250,-3.592329
25.580068,0.202916,9.174310,-3.642010
25.613481,0.184210,9.153060,-3.539505
25.646817,0.119864,9.119540,-3.592329
25.680110,0.185408,9.232072,-3.537260
25.713479,0.305870,9.187478,-3.695433
25.746775,0.159070,9.156951,-3.481144
25.780118,0.176728,9.123431,-3.607891
25.813443,0.200372,9.190920,-3.616421
25.846787,0.291654,9.238058,-3.576915
25.880111,0.163859,9.143633,-3.584398
25.913553,0.152785,9.133008,-3.517208
25.946758,0.241374,9.187478,-3.642908
25.980113,0.186754,9.148870,-3.596968
26.013718,0.144705,9.144381,-3.629590
26.046852,0.179272,9.142735,-3.587690
26.080079,0.190196,9.144232,-3.636623
26.113396,0.210548,9.138844,-3.574521
26.146777,0.200372,9.144680,-3.563447
26.180118,0.104002,9.123132,-3.681965
26.213398,0.138869,9.101284,-3.734639
26.246796,0.134529,9.139593,-3.535315
26.280148,0.282376,9.188077,-3.565991
26.313432,0.150092,9.158448,-3.623305
26.346786,0.168498,9.134355,-3.630787
26.379428,0.163410,9.159196,-3.562849
26.413448,0.132584,9.100386,-3.570331
26.446780,0.115674,9.173262,-3.577813
26.480132,0.200073,9.144830,-3.635276
26.513435,0.252298,9.167426,-3.683311
26.546739,0.061054,9.080933,-3.706805
26.580128,0.167151,9.135552,-3.606694
26.613068,0.250652,9.159794,-3.558809
26.646781,0.182864,9.128220,-3.598614
26.680133,0.159070,9.139293,-3.618366
26.713547,0.203215,9.206633,-3.584098
26.746794,0.168498,9.136151,-3.672088
26.779569,0.167600,9.161141,-3.643506
26.813436,0.198875,9.177602,-3.607443
26.846834,0.166852,9.140042,-3.566291
26.880137,0.188550,9.117146,-3.612680
26.913502,0.230749,9.161590,-3.600559
26.946835,0.153534,9.111160,-3.646200
26.980153,0.173885,9.108766,-3.610286
27.013439,0.266514,9.221597,-3.607293
27.046767,0.291056,9.188526,-3.721321
27.080178,0.167151,9.173412,-3.569583
27.113441,0.166553,9.169072,-3.540552
27.146824,0.202168,9.127172,-3.566141
27.180129,0.222220,9.174908,-3.558060
27.213478,0.228954,9.216958,-3.491918
27.246753,0.212194,9.213067,-3.642160
27.280115,0.211745,9.128968,-3.630039
27.313417,0.136474,9.151564,-3.553571
27.346800,0.276091,9.216808,-3.541749
27.380110,0.299436,9.159196,-3.737931
27.413417,0.217132,9.162189,-3.509127
27.446785,0.151738,9.171167,-3.420987
27.480082,0.206657,9.179547,-3.646649
27.512570,0.194087,9.146476,-3.766663
27.546783,0.246761,9.229827,-3.566291
27.580113,0.198277,9.167875,-3.440591
27.613468,0.164308,9.198103,-3.505536
27.646775,0.165954,9.218454,-3.477253
27.680117,0.207555,9.156951,-3.555816
27.713440,0.211745,9.148422,-3.623305
27.746774,0.220873,9.185383,-3.645003
27.780136,0.168498,9.153659,-3.495809
27.813442,0.186305,9.163386,-3.528880
27.846792,0.142011,9.166678,-3.550578
27.880100,0.149942,9.166678,-3.498652
27.913457,0.201270,9.157699,-3.534566
27.946801,0.174484,9.172514,-3.530077
27.980144,0.226260,9.233419,-3.490272
28.013449,0.159669,9.196906,-3.510175
28.046822,0.148745,9.138545,-3.552075
28.080120,0.141263,9.144082,-3.597716
28.113438,0.177327,9.214564,-3.601457
28.146822,0.176878,9.182091,-3.611483
28.180239,0.208902,9.169671,-3.590234
28.213456,0.129441,9.170718,-3.434455
28.246850,0.148147,9.143932,-3.508678
28.280147,0.183762,9.200797,-3.528730
28.313447,0.138270,9.177303,-3.531424
28.346827,0.133631,9.182091,-3.504189
28.380160,0.161764,9.198103,-3.449270
28.413437,0.190645,9.180894,-3.530077
28.446782,0.161465,9.138844,-3.624951
28.480179,0.164907,9.171317,-3.606994
28.513435,0.118966,9.187478,-3.544592
28.546799,0.106097,9.126574,-3.577963
28.580100,0.163859,9.149918,-3.608939
28.613445,0.189149,9.153509,-3.543994
28.646769,0.132284,9.133457,-3.636024
28.680096,0.169246,9.197504,-3.460493
28.713439,0.135427,9.139892,-3.528880
28.746838,0.208303,9.226685,-3.560904
28.780241,0.202467,9.203640,-3.528431
28.813463,0.161165,9.133158,-3.599661
28.846783,0.165505,9.189573,-3.636024
28.880111,0.198726,9.181044,-3.640813
28.913398,0.206507,9.194212,-3.516759
28.946822,0.191842,9.186431,-3.502244
28.980081,0.179422,9.212169,-3.551925
29.013341,0.128992,9.161440,-3.512868
29.046514,0.172389,9.156652,-3.571379
29.080118,0.239578,9.195559,-3.621060
29.113436,0.205160,9.183588,-3.604599
29.146531,0.197229,9.141239,-3.575868
29.180115,0.176429,9.154108,-3.600559
29.213562,0.198277,9.143334,-3.584996
29.246786,0.200222,9.124179,-3.677326
29.280085,0.177925,9.134205,-3.620910
29.313450,0.197529,9.149170,-3.662810
29.346782,0.161614,9.160243,-3.559557
29.380112,0.175382,9.133457,-3.556564
29.413439,0.199923,9.159495,-3.579908
29.446780,0.205759,9.178949,-3.499101
29.480117,0.193039,9.175956,-3.544144
29.513440,0.129740,9.128968,-3.582751
29.546786,0.202617,9.185982,-3.480396
29.580146,0.231947,9.154258,-3.550877
29.613465,0.174334,9.121935,-3.588139
29.646819,0.168049,9.165780,-3.601756
29.680070,0.269507,9.178799,-3.703813
29.713436,0.239728,9.151714,-3.665205
29.746831,0.172987,9.123282,-3.624801
29.780121,0.182714,9.136151,-3.544144
29.813438,0.234490,9.183288,-3.563597
29.846770,0.183313,9.150068,-3.607742
29.880116,0.138869,9.158897,-3.622706
29.913449,0.219077,9.195409,-3.597566
29.946797,0.172838,9.149020,-3.567637
29.980105,0.211745,9.146925,-3.569134
30.013439,0.218329,9.145578,-3.598015
30.046781,0.181816,9.147224,-3.633480
30.080062,0.175382,9.150666,-3.599811
30.113447,0.169545,9.127621,-3.584697
30.146782,0.197678,9.147374,-3.647248
30.180335,0.156078,9.154108,-3.619863
30.213465,0.170443,9.134205,-3.514664
30.246793,0.145902,9.147374,-3.533968
30.280170,0.148296,9.117296,-3.582153
30.313523,0.108940,9.107569,-3.586493
30.346778,0.156676,9.193314,-3.514215
30.380099,0.188101,9.162488,-3.624203
30.413450,0.135876,9.131063,-3.587690
30.446779,0.094275,9.118343,-3.605497
30.480147,0.206807,9.181044,-3.562250
30.513435,0.151588,9.141987,-3.605497
30.546781,0.121510,9.145279,-3.569732
30.580097,0.154880,9.118194,-3.538906
30.613439,0.179123,9.152462,-3.621210
30.646787,0.163410,9.162488,-3.595022
30.680115,0.154880,9.172065,-3.633331
30.713443,0.128843,9.160393,-3.564794
30.746785,0.159669,9.158897,-3.572875
30.780112,0.207555,9.182241,-3.554619
30.813562,0.129740,9.156353,-3.591880
30.846786,0.140964,9.175208,-3.530376
30.880108,0.169097,9.184186,-3.589036
30.913438,0.196631,9.205286,-3.604150
30.946820,0.171790,9.168623,-3.548334
30.980120,0.163410,9.169820,-3.524091
31.013643,0.250652,9.189424,-3.545041
31.046778,0.159519,9.163685,-3.532022
31.080114,0.167600,9.215013,-3.510773
31.113416,0.222519,9.131961,-3.491320
31.146780,0.166253,9.109963,-3.652036
31.179622,0.171491,9.118343,-3.682563
31.212891,0.238531,9.180295,-3.619264
31.246341,0.232545,9.336223,-3.528431
31.279627,0.192740,9.230725,-3.568535
31.312940,0.197678,9.177602,-3.572875
31.346282,0.179422,9.236561,-3.479049
31.379618,0.190196,9.200198,-3.463785
31.412953,0.169994,9.190322,-3.471716
31.446362,0.157724,9.204388,-3.448372
31.479623,0.226559,9.183887,-3.545191
31.512908,0.236436,9.185084,-3.546538
31.546280,0.182564,9.188077,-3.523942
31.579663,0.182564,9.109065,-3.562849
31.612939,0.239429,9.150666,-3.601158
31.646283,0.199773,9.187029,-3.613578
31.679682,0.203365,9.190471,-3.567637
31.712949,0.185857,9.145878,-3.530077
31.746330,0.197080,9.181343,-3.412458
31.779626,0.211445,9.163087,-3.501196
31.812966,0.164607,9.182391,-3.520201
31.846290,0.237184,9.227882,-3.473811
31.879639,0.139617,9.166079,-3.577514
31.912944,0.161764,9.143334,-3.541001
31.946267,0.203963,9.192866,-3.538607
31.979628,0.219975,9.191818,-3.582303
32.012806,0.248258,9.150816,-3.564794
32.046310,0.163111,9.126274,-3.596968
32.079628,0.179871,9.133008,-3.641262
32.112938,0.188251,9.143334,-3.621808
32.146322,0.230151,9.209925,-3.566141
32.179677,0.201569,9.194661,-3.455106
32.212941,0.134679,9.185383,-3.419192
32.246302,0.175980,9.174759,-3.436401
32.279633,0.202317,9.177452,-3.459146
32.312937,0.206956,9.161291,-3.551027
32.346305,0.159819,9.109814,-3.643656
32.379638,0.208153,9.204837,-3.614775
32.412948,0.170892,9.166528,-3.617469
32.446783,0.226110,9.166678,-3.638419
32.480111,0.150242,9.145728,-3.565842
32.513449,0.218329,9.146327,-3.630637
32.546835,0.199923,9.105324,-3.565692
32.580127,0.200073,9.193464,-3.492367
32.613427,0.219526,9.156652,-3.592329
32.646771,0.237034,9.140939,-3.620910
32.680125,0.156676,9.167875,-3.574671
32.713430,0.170892,9.148721,-3.634229
32.746779,0.235688,9.168324,-3.628692
32.780091,0.214887,9.190022,-3.534117
32.813591,0.192142,9.184486,-3.493115
32.846795,0.203664,9.209027,-3.538607
32.880111,0.150391,9.161889,-3.504937
32.913445,0.158023,9.192566,-3.441189
32.946797,0.149942,9.179996,-3.530676
32.980133,0.229852,9.167725,-3.645452
33.013455,0.207106,9.169072,-3.627495
33.046750,0.221172,9.154258,-3.659069
33.079976,0.139467,9.123282,-3.594723
33.113147,0.135427,9.160692,-3.569882
33.146795,0.181816,9.188825,-3.551925
33.180115,0.211445,9.183737,-3.523194
33.213443,0.168498,9.141239,-3.506434
33.246774,0.175531,9.182091,-3.457500
33.280115,0.209201,9.154258,-3.569583
33.313434,0.167151,9.240602,-3.524989
33.346778,0.152636,9.193314,-3.490721
33.380114,0.181367,9.172664,-3.600858
33.413437,0.122707,9.114602,-3.607143
33.446788,0.144256,9.133457,-3.619713
33.480147,0.220274,9.185683,-3.637072
33.513434,0.154132,9.124329,-3.571079
33.546824,0.121510,9.140640,-3.541300
33.579787,0.153384,9.164284,-3.598015
33.613471,0.173436,9.144381,-3.593825
33.646805,0.062102,9.113854,-3.630039
33.680112,0.194835,9.160842,-3.583799
33.713417,0.198277,9.139443,-3.584547
33.746787,0.154432,9.136300,-3.569284
33.780148,0.178374,9.131961,-3.596968
33.813471,0.174035,9.130464,-3.595022
33.846796,0.139168,9.119540,-3.576466
33.880241,0.161465,9.178649,-3.586493
33.913424,0.188849,9.164284,-3.573025
33.946776,0.080209,9.110861,-3.461541
33.980138,0.162363,9.129567,-3.690494
34.013474,0.186605,9.090659,-3.762772
34.046781,0.250652,9.222794,-3.531274
34.079631,0.224614,9.202892,-3.473063
34.113467,0.210548,9.157250,-3.578113
34.146778,0.090534,9.129267,-3.625400
34.179117,0.211595,9.171317,-3.668646
34.213447,0.314400,9.162937,-3.614925
34.246910,0.238980,9.118942,-3.535165
34.280119,0.242122,9.176704,-3.511372
34.313458,0.179721,9.159645,-3.630039
34.346758,0.173885,9.190621,-3.585445
34.380120,0.163859,9.189424,-3.528281
34.413439,0.194087,9.140790,-3.628393
34.446854,0.260079,9.172963,-3.549231
34.480131,0.226410,9.174010,-3.541151
34.513471,0.250053,9.164284,-3.563447
34.546731,0.138120,9.173262,-3.540702
34.580122,0.150092,9.147524,-3.555367
34.613438,0.239129,9.156652,-3.610435
34.646837,0.261576,9.168174,-3.540552
34.680119,0.228804,9.186281,-3.484885
34.713433,0.196032,9.140939,-3.504787
34.746813,0.120163,9.145878,-3.539505
34.780089,0.187952,9.195709,-3.509576
34.813517,0.224764,9.160393,-3.611034
34.845809,0.219526,9.156502,-3.487728
34.880112,0.187054,9.177752,-3.637371
34.913447,0.155030,9.107120,-3.552823
34.946771,0.197678,9.126424,-3.566889
34.980109,0.226559,9.187778,-3.519752
35.013445,0.220125,9.206633,-3.573773
35.046796,0.174334,9.157101,-3.593825
35.080099,0.167450,9.166977,-3.523343
35.113482,0.189149,9.178949,-3.520500
35.146813,0.194985,9.157999,-3.523942
35.180221,0.251400,9.178799,-3.508080
35.212837,0.171640,9.156652,-3.491469
35.245978,0.213989,9.177153,-3.554768
35.280173,0.181517,9.169970,-3.600409
35.313442,0.183612,9.152312,-3.640364
35.346779,0.176878,9.144531,-3.590234
35.380066,0.219676,9.157550,-3.546388
35.413513,0.213540,9.163835,-3.569583
35.446771,0.221023,9.198402,-3.553870
35.480153,0.138719,9.120289,-3.483987
35.513447,0.143059,9.149319,-3.542198
35.546783,0.299286,9.196158,-3.559257
35.580153,0.234191,9.148122,-3.694984
35.613509,0.196182,9.151714,-3.583350
35.646787,0.220873,9.183288,-3.510324
35.680115,0.219825,9.159046,-3.615074
35.713449,0.199624,9.147524,-3.685107
35.746849,0.221771,9.169072,-3.538457
35.780121,0.263821,9.190621,-3.490422
35.813451,0.221472,9.157400,-3.529030
35.846818,0.172089,9.170868,-3.621659
35.880130,0.228654,9.206483,-3.600858
35.913449,0.204562,9.180445,-3.588737
35.946788,0.222220,9.145279,-3.607742
35.980166,0.248407,9.155155,-3.565842
36.013453,0.220125,9.127472,-3.619863
36.046790,0.228205,9.137647,-3.686454
36.080131,0.195134,9.144381,-3.650839
36.113439,0.220125,9.143783,-3.636922
36.146833,0.246163,9.139144,-3.576915
36.180136,0.201868,9.147973,-3.562400
36.213437,0.244217,9.125077,-3.579310
36.246834,0.189897,9.152911,-3.577065
36.280145,0.189897,9.141837,-3.581554
36.313445,0.176429,9.187329,-3.523044
36.346793,0.264569,9.196607,-3.554170
36.380119,0.213989,9.150217,-3.642908
36.413566,0.185557,9.161889,-3.596219
36.446778,0.174484,9.131961,-3.656076
36.480125,0.178374,9.126873,-3.643955
36.513479,0.229852,9.136899,-3.598614
36.546797,0.186305,9.158448,-3.587989
36.580114,0.163560,9.163087,-3.598165
36.613450,0.180320,9.160094,-3.585894
36.646815,0.116871,9.149170,-3.537410
36.680102,0.148147,9.190022,-3.588737
36.713450,0.228205,9.201844,-3.554619
36.746787,0.178823,9.140341,-3.480096
36.780173,0.156527,9.107569,-3.580806
36.813452,0.140664,9.107270,-3.752746
36.846901,0.132733,9.150517,-3.638868
36.880097,0.100410,9.158298,-3.608340
36.913449,0.093826,9.143334,-3.562550
36.946781,0.178075,9.178350,-3.547735
36.980124,0.179422,9.186431,-3.508529
37.013457,0.145154,9.157849,-3.516759
37.046781,0.176130,9.132260,-3.623305
37.080110,0.135577,9.162338,-3.509426
37.113442,0.191094,9.193763,-3.527832
37.146800,0.155928,9.191668,-3.535913
37.180080,0.165355,9.151265,-3.604599
37.213461,0.088888,9.125975,-3.642908
37.246837,0.162961,9.137049,-3.629141
37.280111,0.210099,9.168623,-3.580507
37.313439,0.180769,9.171317,-3.610286
37.346841,0.156377,9.157550,-3.557162
37.380115,0.188101,9.186281,-3.537859
37.413478,0.159220,9.196158,-3.553721
37.446789,0.150092,9.180295,-3.622257
37.480121,0.215486,9.200647,-3.525139
37.513502,0.162512,9.160543,-3.472614
37.546792,0.189747,9.185533,-3.507182
37.580110,0.176279,9.184486,-3.550578
37.613486,0.160118,9.195709,-3.497305
37.646804,0.142460,9.179996,-3.482790
37.680108,0.196930,9.199749,-3.512719
37.713449,0.161315,9.151714,-3.526037
37.746792,0.173735,9.164284,-3.533669
37.780081,0.181367,9.161590,-3.435952
37.813479,0.115225,9.101583,-3.530825
37.846796,0.106246,9.179398,-3.590683
37.880166,0.221771,9.216210,-3.548633
37.913462,0.201719,9.154258,-3.542348
37.946795,0.126299,9.166528,-3.516609
37.980141,0.135128,9.191369,-3.534417
38.013428,0.167899,9.175657,-3.550578
38.046790,0.149942,9.200497,-3.513018
38.080134,0.181068,9.165481,-3.524690
38.113345,0.215336,9.186730,-3.538008
38.146779,0.141113,9.166079,-3.614775
38.180122,0.122258,9.161141,-3.652784
38.213450,0.067339,9.150517,-3.628841
38.246827,0.168049,9.177901,-3.606994
38.280128,0.119116,9.172215,-3.492367
38.313444,0.187203,9.133906,-3.469172
38.346795,0.136325,9.174759,-3.631834
38.380131,0.110436,9.168923,-3.583500
38.413415,0.066142,9.168474,-3.446427
38.446808,0.145004,9.180744,-3.467077
38.480041,0.162363,9.208279,-3.473362
38.513426,0.158771,9.249281,-3.452712
38.546777,0.161465,9.221298,-3.451215
38.580112,-0.024392,9.131961,-3.465581
38.613401,0.092779,9.145279,-3.642160
38.646779,0.209201,9.172813,-3.806468
38.679143,0.211296,9.164284,-3.703214
38.713394,0.057613,9.147823,-3.528132
38.746830,0.104750,9.149020,-3.536212
38.780115,0.173885,9.168773,-3.617918
38.813477,0.128693,9.149469,-3.647996
38.846791,0.140515,9.138246,-3.587989
38.880126,0.186156,9.176704,-3.490571
38.913661,0.165355,9.130913,-3.531873
38.946787,0.114477,9.166379,-3.530227
38.980140,0.133930,9.188227,-3.546987
39.013458,0.127945,9.209925,-3.531873
39.046845,0.072577,9.112807,-3.532471
39.080172,0.114327,9.147823,-3.520201
39.112891,0.113280,9.168174,-3.508229
39.146786,0.153683,9.195559,-3.606694
39.180126,0.075270,9.180146,-3.597267
39.213467,0.058660,9.160393,-3.557162
39.247069,0.080508,9.149918,-3.525737
39.279270,0.034119,9.137797,-3.381631
39.313448,0.153384,9.252723,-3.447175
39.347072,0.198277,9.244792,-3.523493
39.380129,0.179272,9.234017,-3.614027
39.413445,0.034717,9.165930,-3.476954
39.446805,0.038159,9.207830,-3.474260
39.480135,0.232695,9.315273,-3.517357
39.513458,0.153234,9.220699,-3.504638
39.546765,0.160118,9.240302,-3.395398
39.579338,0.104900,9.206333,-3.445379
39.613455,0.100261,9.185832,-3.534866
39.646829,0.021848,9.181193,-3.522894
39.680164,0.112083,9.202892,-3.462588
39.713458,0.169695,9.172664,-3.553272
39.746829,0.123156,9.131213,-3.668497
39.780162,0.121510,9.112807,-3.694684
39.813455,0.149344,9.175058,-3.540851
39.846787,0.146500,9.185383,-3.531125
39.879772,0.054919,9.139443,-3.585744
39.913185,0.066292,9.088265,-3.605198
39.946871,0.151439,9.101733,-3.654580
39.979833,0.159519,9.148272,-3.553421
40.013047,0.107294,9.159046,-3.526486
40.046780,0.088439,9.139293,-3.513766
40.080120,0.058959,9.166079,-3.595321
40.113445,0.110436,9.161889,-3.424728
40.145786,0.146650,9.182540,-3.506882
40.180133,0.155778,9.205884,-3.461990
40.213500,0.110287,9.226386,-3.516310
40.246635,0.094425,9.231473,-3.590533
40.280114,0.078563,9.128968,-3.574671
40.313456,0.200222,9.187778,-3.595770
40.346811,0.165056,9.205735,-3.462588
40.380057,0.150990,9.183737,-3.490571
40.413447,0.209051,9.197504,-3.505835
40.446777,0.105798,9.165032,-3.436850
40.480121,0.061054,9.167725,-3.406921
40.513448,0.104151,9.130764,-3.544144
40.546782,0.171491,9.242098,-3.589635
40.580134,0.104301,9.178500,-3.627495
40.613448,0.190047,9.180744,-3.507780
40.646780,0.090085,9.245989,-3.507331
40.680114,0.077365,9.266939,-3.495659
40.713463,0.148895,9.161740,-3.519901
40.746784,0.174783,9.126125,-3.521996
40.780116,0.089337,9.115051,-3.493714
40.813447,0.265467,9.221447,-3.536811
40.846785,0.198726,9.181942,-3.603402
40.880135,0.006135,8.931888,-3.352900
40.913559,0.083650,9.160692,-3.531424
40.946792,0.203215,9.190172,-3.576616
40.980127,0.168648,9.220849,-3.655029
41.013156,0.110137,9.169372,-3.503740
41.046778,0.068237,9.157101,-3.518704
41.080126,0.145303,9.216958,-3.511821
41.113481,0.180619,9.232222,-3.485184
41.146791,0.145603,9.206782,-3.554619
41.180132,0.110137,9.200198,-3.492068
41.213470,0.178374,9.181642,-3.546089
41.246800,0.109539,9.172813,-3.542198
41.280005,0.136474,9.188676,-3.488476
41.313427,0.095323,9.171467,-3.444182
41.346788,0.122558,9.218454,-3.385971
41.380122,0.185408,9.237309,-3.452562
41.413456,0.168348,9.166977,-3.536212
41.445798,0.059558,9.180595,-3.491170
41.480113,0.131237,9.182540,-3.540552
41.513440,0.196631,9.179248,-3.530376
41.546778,0.152037,9.152163,-3.454956
41.579736,0.132584,9.194362,-3.453610
41.612931,0.144405,9.192566,-3.569433
41.646783,0.171192,9.177602,-3.449719
41.680112,0.094125,9.185383,-3.470070
41.713452,0.195583,9.287440,-3.465282
41.746777,0.230151,9.177153,-3.535614
41.780112,0.179871,9.158597,-3.451066
41.813452,0.123755,9.118643,-3.506733
41.846774,0.202018,9.135253,-3.516759
41.880112,0.169845,9.175956,-3.589934
41.913463,0.161764,9.165481,-3.645601
41.946829,0.259481,9.243445,-3.561203
41.980136,0.157574,9.233568,-3.526486
42.013470,0.171341,9.125526,-3.537859
42.046712,0.246761,9.126873,-3.499400
42.080117,0.253794,9.200647,-3.466479
42.113465,0.207255,9.174160,-3.595022
42.146745,0.131087,9.142735,-3.587540
42.180076,0.194087,9.168623,-3.509426
42.213460,0.193339,9.118792,-3.460344
42.246820,0.134828,9.078239,-3.590832
42.280110,0.265916,9.126574,-3.721919
42.313458,0.225811,9.116997,-3.674183
42.346811,0.224315,9.149319,-3.580806
42.380107,0.184510,9.210523,-3.600110
42.413448,0.212942,9.203490,-3.589785
42.446809,0.173436,9.179398,-3.511821
42.480109,0.221472,9.211122,-3.492517
42.513444,0.253944,9.180894,-3.502692
42.546807,0.236286,9.159046,-3.572426
42.580445,0.144555,9.130315,-3.623754
42.613492,0.195883,9.129417,-3.623005
42.646788,0.248707,9.168773,-3.598464
42.680170,0.209051,9.182540,-3.678074
42.713511,0.187353,9.127172,-3.655478
42.746789,0.202018,9.111011,-3.630787
42.780108,0.215037,9.231773,-3.531274
42.813515,0.229403,9.187029,-3.518704
42.846778,0.307816,9.170120,-3.542497
42.880146,0.172538,9.180595,-3.559856
42.913473,0.235688,9.100835,-3.677176
42.946799,0.293599,9.071655,-3.665205
42.980204,0.333704,9.168174,-3.757085
43.013479,0.237633,9.206633,-3.486082
43.046799,0.134679,9.146476,-3.507182
43.080175,0.284920,9.226685,-3.646948
43.113461,0.256488,9.201844,-3.628393
43.146789,0.229702,9.149020,-3.632134
43.180154,0.209201,9.108617,-3.605348
43.213455,0.274146,9.115650,-3.484735
43.246836,0.240626,9.220699,-3.458249
43.280114,0.215187,9.204987,-3.529329
43.313464,0.175531,9.130913,-3.448971
43.346793,0.225662,9.281903,-3.433258
43.380115,0.237633,9.230576,-3.544293
43.413484,0.200671,9.089462,-3.580956
43.446799,0.142310,9.194362,-3.598464
43.480139,0.132733,9.099937,-3.707404
43.513668,0.187203,9.320661,-3.440591
43.546789,0.165355,9.318865,-3.382978
43.580119,0.098764,9.113555,-3.388515
43.613436,0.182564,9.192417,-3.470669
43.646864,0.217132,9.114453,-3.558659
43.680124,0.240027,9.092605,-3.528281
43.713493,0.256338,9.236711,-3.588438
43.746786,0.209949,9.174160,-3.572426
43.780125,0.220274,9.194661,-3.421287
43.813493,0.143807,9.300309,-3.380285
43.846793,0.173735,9.241799,-3.489524
43.880110,0.216384,9.188077,-3.483688
43.913463,0.251101,9.196008,-3.562101
43.946783,0.315896,9.216958,-3.450317
43.980260,0.209350,9.172215,-3.359933
44.013455,0.061204,9.185982,-3.509875
44.046776,0.245564,9.256913,-3.473512
44.079707,0.161914,9.337870,-3.362178
44.112942,0.140964,9.257661,-3.397942
44.146814,0.199773,9.208877,-3.452712
44.180100,0.172838,9.244043,-3.387916
44.213401,0.144256,9.084225,-3.533220
44.246784,0.148595,9.204837,-3.435503
44.280165,0.162512,9.227882,-3.478001
44.313446,0.163111,9.177752,-3.482191
44.346781,0.137971,9.212918,-3.505985
44.380118,0.077066,9.204987,-3.394201
44.413528,0.165206,9.216958,-3.502393
44.446786,0.193937,9.206184,-3.330753
44.480125,0.123755,9.155305,-3.512569
44.513491,0.103254,9.209476,-3.470819
44.546814,0.147698,9.153809,-3.636623
44.580107,0.166403,9.223393,-3.456153
44.613433,0.083351,9.158298,-3.448372
44.646698,0.043546,9.201395,-3.522595
44.680125,0.024242,9.146027,-3.610435
44.713443,0.063149,9.155006,-3.551177
44.746781,0.170892,9.258559,-3.555516
44.780114,0.090833,9.183438,-3.499849
44.813446,0.065544,9.195709,-3.415600
44.846777,0.041750,9.218006,-3.540702
44.880115,0.065843,9.158597,-3.426674
44.913451,0.079011,9.277863,-3.107934
44.946817,0.035914,9.280706,-3.312796
44.980138,0.039057,9.105923,-3.633630
45.013637,-0.029330,9.085123,-3.495659
45.046804,0.017059,9.186581,-3.506434
45.080111,0.235837,9.222944,-3.689297
45.113440,0.121510,9.220699,-3.479797
45.146778,0.014665,9.286991,-3.363525
45.180117,0.113729,9.179098,-3.501495
45.213446,0.055817,9.146775,-3.502842
45.246781,0.050130,9.148721,-3.379686
45.280115,0.157724,9.177303,-3.464683
45.313444,0.138270,9.212918,-3.565094
45.346370,0.118966,9.203789,-3.660416
45.380113,0.129441,9.189424,-3.585146
45.413455,0.084848,9.223842,-3.417845
45.446796,0.142011,9.239853,-3.544742
45.480084,0.181667,9.204987,-3.364123
45.513454,0.140814,9.149619,-3.260869
45.546771,0.165655,9.155155,-3.449569
45.580122,0.184061,9.246138,-3.293192
45.613454,0.222519,9.322756,-3.531274
45.646780,0.189598,9.156053,-3.657723
45.680132,0.237334,9.097992,-3.566291
45.713427,0.185707,9.219951,-3.327909
45.746818,0.239578,9.265442,-3.471118
45.780122,0.232844,9.175357,-3.592179
45.813455,0.164009,9.161740,-3.445379
45.846808,0.287314,9.228780,-3.536362
45.879178,0.208004,9.253621,-3.507780
45.913442,0.168498,9.222644,-3.266556
45.946783,0.251101,9.155155,-3.518405
45.979157,0.207106,9.027510,-3.712043
46.013548,0.260528,9.075396,-3.547436
46.045936,0.259780,9.238207,-3.562550
46.080140,0.219526,9.160692,-3.766513
46.113446,0.178674,9.261851,-3.541001
46.146783,0.127496,9.195110,-3.517657
46.180115,0.185108,9.072253,-3.491769
46.212532,0.241823,9.104127,-3.487130
46.246769,0.249006,9.230875,-3.528730
46.280125,0.222818,9.147524,-3.664756
46.312522,0.133930,9.104127,-3.664905
46.346772,0.113878,9.015838,-3.742420
46.380139,0.256039,9.169820,-3.507331
46.413456,0.333255,9.214115,-3.787463
46.446780,0.318141,9.165182,-3.709649
46.480130,0.247659,9.144830,-3.406921
46.513455,0.204113,9.295072,-3.522296
46.546777,0.171790,9.173562,-3.604599
46.580160,0.251251,9.070458,-3.505685
46.612468,0.358545,9.289236,-3.634378
46.646824,0.274894,9.196756,-3.639765
46.680107,0.354504,9.193614,-3.556714
46.712597,0.277288,9.264993,-3.502992
46.746851,0.169097,9.159794,-3.599511
46.779262,0.361388,9.122683,-3.781777
46.813407,0.374257,9.181044,-3.615523
46.846779,0.235987,9.101434,-3.622856
46.879286,0.309162,9.133607,-3.493864
46.913482,0.330711,9.237609,-3.504189
46.946786,0.309013,9.149768,-3.433557
46.980217,0.256638,9.273074,-3.274936
47.012651,0.244816,9.177452,-3.560604
47.046774,0.398050,9.118493,-3.598015
47.080146,0.252747,9.150517,-3.624502
47.112589,0.310958,9.102332,-3.736435
47.146771,0.310060,9.130015,-3.592478
47.180145,0.344777,9.220549,-3.518555
47.212634,0.387426,9.285943,-3.493564
47.246781,0.306918,9.233419,-3.612680
47.280120,0.339091,9.218155,-3.406023
47.312542,0.299585,9.217108,-3.440142
47.346775,0.293749,9.155006,-3.616720
47.380109,0.370516,9.159944,-3.563298
47.412536,0.268908,9.144830,-3.611333
47.446769,0.319039,9.150965,-3.640065
47.480149,0.352559,9.185084,-3.610884
47.513423,0.346124,9.207979,-3.500149
47.546815,0.243319,9.156802,-3.515113
47.580111,0.294497,9.205884,-3.538457
47.612743,0.317991,9.187329,-3.530975
47.645995,0.315896,9.121336,-3.530676
47.680116,0.335649,9.164284,-3.562250
47.712632,0.361986,9.125077,-3.605348
47.746814,0.270554,9.164134,-3.571827
47.779297,0.337894,9.238806,-3.538158
47.813442,0.245115,9.196307,-3.533669
47.846769,0.219825,9.170419,-3.633031
47.879428,0.238531,9.177452,-3.565692
47.913485,0.309611,9.198552,-3.546987
47.946779,0.292253,9.149319,-3.550578
47.980196,0.301531,9.158148,-3.567189
48.012649,0.288512,9.159944,-3.601307
48.045895,0.276241,9.137797,-3.523343
48.079277,0.252897,9.152462,-3.606395
48.112585,0.298687,9.155305,-3.632882
48.145860,0.289559,9.116847,-3.641561
48.179232,0.353457,9.152462,-3.642609
48.212566,0.332507,9.189573,-3.595471
48.245861,0.309312,9.175657,-3.609687
48.279345,0.284022,9.203041,-3.542497
48.312595,0.231797,9.140790,-3.578711
48.345886,0.275792,9.214414,-3.502393
48.379221,0.303476,9.163386,-3.554768
48.412565,0.291355,9.149918,-3.565542
48.445904,0.301680,9.122533,-3.617169
48.479287,0.302279,9.164882,-3.570181
48.512579,0.282975,9.111909,-3.645601
48.545846,0.256638,9.108317,-3.675829
48.579207,0.323229,9.180445,-3.648744
48.612515,0.345825,9.168923,-3.508379
48.645906,0.269058,9.101583,-3.542348
48.679236,0.219526,9.083327,-3.745713
48.712562,0.385780,9.158148,-3.788810
48.745998,0.334302,9.133158,-3.593675
48.779348,0.263821,9.142735,-3.483688
48.812757,0.284022,9.144531,-3.550279
48.846031,0.305870,9.161590,-3.573174
48.879281,0.254543,9.184635,-3.512569
48.912682,0.211595,9.144830,-3.599063
48.946024,0.285070,9.171766,-3.591880
48.979285,0.352409,9.174160,-3.558509
49.012673,0.292702,9.135702,-3.548633
49.045987,0.239878,9.133757,-3.590533
49.079422,0.297191,9.136300,-3.631535
49.112633,0.281329,9.124329,-3.594873
49.145992,0.295096,9.122533,-3.688549
49.179322,0.288362,9.138096,-3.675829
49.212718,0.336996,9.161291,-3.497904
49.245978,0.272500,9.172963,-3.539505
49.279320,0.260528,9.129567,-3.619863
49.312626,0.336697,9.120289,-3.613129
49.346013,0.304823,9.090210,-3.636773
49.379325,0.324725,9.153809,-3.554619
49.412716,0.297041,9.193913,-3.582901
49.446172,0.329214,9.185383,-3.602654
49.479397,0.220125,9.188975,-3.668497
49.512765,0.304374,9.147224,-3.576017
49.546073,0.406580,9.170419,-3.562101
49.579435,0.301680,9.112507,-3.575269
49.612759,0.349416,8.492387,-3.380584
49.646092,0.299884,9.032448,-3.552823
49.679369,0.326072,9.121336,-3.648145
49.712783,0.315597,9.166678,-3.569433
49.746077,0.319937,9.132110,-3.613578
49.779306,0.347770,9.114153,-3.657872
49.812746,0.358245,9.175657,-3.625100
49.846094,0.357198,9.184635,-3.537709
49.879368,0.332656,9.160543,-3.472016
49.912741,0.273547,9.107270,-3.592927
49.946080,0.282526,9.121635,-3.669245
49.979457,0.451622,9.167277,-3.705908
50.012841,0.349416,9.144381,-3.635875
50.046190,0.289559,9.151863,-3.590982
50.079446,0.327718,9.162039,-3.680319
50.112923,0.326072,9.150367,-3.584697
50.146098,0.302877,9.113255,-3.566141
50.179460,0.328466,9.203191,-3.589485
50.212814,0.391466,9.159794,-3.602804
50.246162,0.363333,9.137198,-3.634827
50.279493,0.206807,9.117296,-3.700371
50.312773,0.308414,9.156353,-3.636623
50.346160,0.382038,9.166828,-3.639017
50.379532,0.288512,9.125975,-3.641112
50.412842,0.316644,9.142735,-3.555666
50.446302,0.353008,9.172813,-3.550877
50.479595,0.259182,9.127172,-3.526785
50.512849,0.268459,9.184037,-3.641411
50.546250,0.289260,9.157250,-3.617169
50.579591,0.320236,9.163386,-3.582452
50.612877,0.329663,9.141239,-3.536512
50.646264,0.241524,9.077491,-3.587241
50.679592,0.275343,9.109814,-3.704860
50.712882,0.357347,9.156053,-3.614775
50.746253,0.273398,9.139144,-3.560754
50.779587,0.274146,9.139892,-3.613578
50.812877,0.329963,9.146177,-3.620611
50.846251,0.336397,9.175507,-3.543695
50.879519,0.324276,9.169521,-3.507481
50.912967,0.273547,9.195709,-3.503740
50.946369,0.279832,9.148721,-3.478151
50.979631,0.403886,9.190771,-3.674632
51.013024,0.311856,9.134804,-3.699922
51.046335,0.306768,9.135253,-3.652485
51.079779,0.400744,9.130913,-3.585445
51.112978,0.325324,9.145578,-3.686604
51.146340,0.293599,9.156652,-3.598614
51.179673,0.343281,9.187778,-3.578861
51.212995,0.338941,9.104277,-3.653981
51.246339,0.354055,9.175357,-3.657872
51.279680,0.299884,9.148272,-3.589785
51.312965,0.339989,9.101733,-3.609687
51.346418,0.381889,9.166379,-3.576317
51.379787,0.331309,9.138395,-3.696630
51.413055,0.285369,9.179098,-3.550877
51.446430,0.292253,9.154557,-3.447624
51.479785,0.296443,9.119241,-3.649193
51.513082,0.357048,9.133607,-3.763370
51.546433,0.389521,9.193913,-3.549381
51.579757,0.302877,9.145429,-3.587989
51.613080,0.298238,9.119690,-3.642160
51.646429,0.314250,9.182690,-3.608789
51.679750,0.319338,9.151115,-3.618217
51.713096,0.335948,9.149469,-3.549980
51.746435,0.320685,9.129417,-3.617169
51.779763,0.330412,9.149170,-3.687801
51.813123,0.309911,9.138246,-3.707554
51.846427,0.333404,9.143633,-3.660715
51.879763,0.298238,9.105324,-3.610735
51.913076,0.330412,9.112358,-3.596369
51.946448,0.278934,9.098890,-3.657274
51.979770,0.316644,9.131811,-3.721919
52.013137,0.287763,9.146177,-3.666103
52.046530,0.251550,9.151414,-3.516609
52.079973,0.299884,9.181792,-3.480994
52.113218,0.314250,9.139593,-3.540103
52.146513,0.269058,9.103678,-3.651587
52.179853,0.249156,9.106970,-3.693936
52.213186,0.320535,9.129118,-3.676278
52.246454,0.316794,9.142436,-3.581405
52.279855,0.293749,9.172963,-3.557312
52.313147,0.260379,9.113255,-3.690494
52.346921,0.289858,9.191818,-3.546987
52.379802,0.313652,9.193763,-3.557013
52.413148,0.348967,9.148272,-3.577664
52.446478,0.251400,9.081082,-3.617319
52.479890,0.315597,9.132410,-3.655927
52.513184,0.347621,9.124628,-3.712342
52.546501,0.290008,9.144232,-3.629440
52.579809,0.299136,9.147075,-3.571678
52.613201,0.312903,9.144531,-3.552224
52.646534,0.309761,9.144381,-3.675530
52.679852,0.324725,9.140640,-3.626298
52.713185,0.342233,9.140042,-3.627644
52.746539,0.270554,9.153360,-3.541001
52.779822,0.311557,9.147224,-3.541749
52.813158,0.334302,9.141688,-3.609687
52.846488,0.320984,9.155006,-3.542797
52.879940,0.273996,9.154407,-3.575120
52.913290,0.330412,9.149469,-3.665504
52.946569,0.322929,9.147374,-3.708900
52.979945,0.338193,9.153809,-3.595920
53.013284,0.291804,9.082878,-3.646499
53.046569,0.336098,9.158298,-3.630039
53.079922,0.348967,9.119840,-3.648744
53.113306,0.280281,9.108018,-3.662661
53.146778,0.285668,9.153958,-3.668048
53.179969,0.329214,9.125825,-3.615972
53.213280,0.341485,9.123581,-3.663858
53.246629,0.352110,9.146027,-3.586792
53.279907,0.360191,9.205286,-3.549381
53.313286,0.300333,9.157550,-3.547585
53.346608,0.270554,9.132110,-3.597117
53.379993,0.284771,9.128818,-3.594573
53.413273,0.344029,9.135103,-3.646799
53.446608,0.333404,9.144680,-3.588737
53.479979,0.325324,9.100985,-3.652036
53.513364,0.370666,9.137797,-3.716832
53.546742,0.278186,9.130464,-3.734789
53.580039,0.317093,9.129267,-3.609986
53.613389,0.309911,9.119391,-3.542348
53.646692,0.334901,9.177452,-3.548034
53.680034,0.249754,9.125227,-3.614176
53.713376,0.305870,9.219053,-3.471417
53.746698,0.329663,9.169671,-3.560305
53.780136,0.289709,9.090659,-3.670741
53.813378,0.277887,9.124030,-3.594723
53.846784,0.295694,9.127771,-3.631834
53.880071,0.355252,9.126125,-3.721620
53.913482,0.298538,9.124030,-3.667000
53.946787,0.281628,9.112807,-3.593825
53.980157,0.321732,9.120289,-3.596818
54.013441,0.272649,9.138096,-3.606245
54.046821,0.268908,9.152013,-3.589036
54.080119,0.309013,9.140640,-3.532771
54.113392,0.271303,9.131512,-3.564046
54.146828,0.296592,9.130764,-3.573623
54.180066,0.368571,9.169372,-3.555816
54.213561,0.296742,9.173562,-3.601906
54.246734,0.290607,9.152013,-3.654430
54.280123,0.280132,9.126424,-3.674632
54.313398,0.334901,9.133906,-3.663708
54.346729,0.373509,9.135253,-3.656675
54.380047,0.310210,9.102930,-3.554918
54.413759,0.391017,9.184635,-3.529179
54.446725,0.328017,9.148422,-3.629590
54.480058,0.275792,9.104127,-3.657573
54.513470,0.325922,9.128818,-3.692440
54.546729,0.387875,9.179697,-3.663409
54.579510,0.365877,9.159645,-3.612231
54.613450,0.297490,9.151414,-3.569732
54.646717,0.341336,9.178799,-3.543844
54.680034,0.336397,9.151414,-3.580507
54.713440,0.318590,9.143034,-3.557761
54.746725,0.352409,9.186281,-3.558809
54.780055,0.307516,9.153210,-3.612830
54.813393,0.318141,9.126873,-3.679121
54.846755,0.391017,9.131662,-3.618366
54.880075,0.379943,9.125227,-3.576616
54.913390,0.302877,9.120289,-3.523343
54.946717,0.333853,9.143483,-3.671041
54.980056,0.333704,9.159046,-3.744216
55.013444,0.338193,9.156951,-3.598464
55.046721,0.345226,9.216958,-3.555217
55.080067,0.295844,9.162787,-3.530975
55.113399,0.322032,9.168025,-3.565692
55.146759,0.319338,9.172065,-3.571528
55.180063,0.348518,9.137348,-3.597117
55.213394,0.323827,9.126723,-3.593376
55.246753,0.367373,9.143184,-3.626298
55.280062,0.332507,9.143184,-3.604450
55.313384,0.300633,9.111909,-3.637371
55.346731,0.348369,9.132709,-3.587839
55.380069,0.367523,9.148122,-3.562550
55.413393,0.315148,9.151115,-3.618815
55.446794,0.290607,9.134056,-3.577065
55.480069,0.350913,9.176405,-3.562400
55.513383,0.328167,9.155604,-3.537110
55.546764,0.361837,9.204388,-3.575419
55.580061,0.340737,9.157849,-3.615972
55.613433,0.288362,9.122533,-3.604150
55.646712,0.313801,9.125526,-3.663559
55.680062,0.308713,9.138994,-3.696480
55.713387,0.351511,9.127472,-3.646499
55.746729,0.355851,9.169372,-3.607443
55.780050,0.354654,9.140640,-3.617768
55.813464,0.293300,9.121635,-3.668347
55.846727,0.331010,9.177003,-3.578861
55.880086,0.281927,9.093203,-3.627345
55.913433,0.300633,9.064921,-3.702167
55.946727,0.366326,9.156353,-3.657423
55.980055,0.322032,9.126274,-3.629739
56.013395,0.309462,9.134954,-3.630188
56.046372,0.316644,9.165930,-3.594573
56.080080,0.334751,9.154108,-3.571977
56.113419,0.331309,9.145578,-3.583200
56.146730,0.319338,9.141987,-3.514365
56.180057,0.299286,9.085272,-3.656974
56.213410,0.381141,9.091258,-3.833104
56.246736,0.378447,9.135552,-3.738081
56.280071,0.303177,9.117595,-3.582003
56.313278,0.320086,9.135702,-3.640364
56.346727,0.353606,9.127771,-3.700371
56.380059,0.308713,9.145878,-3.656376
56.413390,0.326671,9.142735,-3.574371
56.446725,0.323678,9.117296,-3.536961
56.480060,0.366775,9.154856,-3.558958
56.513392,0.320236,9.134505,-3.647098
56.546501,0.305571,9.158448,-3.630488
56.579678,0.286117,9.118493,-3.681067
56.613385,0.301979,9.180146,-3.550429
56.646725,0.377699,9.164583,-3.621210
56.680057,0.394908,9.109664,-3.699623
56.713403,0.267412,9.107270,-3.640364
56.746715,0.374706,9.169970,-3.674183
56.780081,0.322331,9.152312,-3.601606
56.813409,0.288661,9.120887,-3.595471
56.846727,0.320236,9.148721,-3.593226
56.880057,0.368271,9.153360,-3.591281
56.913396,0.334901,9.162039,-3.639616
56.946721,0.275642,9.188825,-3.569134
56.980059,0.248108,9.160094,-3.546538
57.013399,0.301531,9.146476,-3.531274
57.046727,0.342383,9.136899,-3.585595
57.080090,0.347022,9.136001,-3.596968
57.113392,0.284920,9.145728,-3.598015
57.146718,0.289409,9.174010,-3.640963
57.180061,0.320535,9.152761,-3.607742
57.213402,0.294797,9.154108,-3.557911
57.246732,0.311856,9.139443,-3.563148
57.280059,0.319937,9.125825,-3.621509
57.313394,0.342084,9.156203,-3.582303
57.346725,0.281478,9.151714,-3.554020
57.380052,0.235089,9.136151,-3.605048
57.413385,0.319787,9.190172,-3.623754
57.446728,0.277737,9.142286,-3.602355
57.480059,0.341784,9.202293,-3.438047
57.513412,0.299436,9.084823,-3.656376
57.546727,0.329364,9.098142,-3.794496
57.580065,0.301531,9.148422,-3.685855
57.613447,0.306469,9.182540,-3.535315
57.646725,0.311407,9.111759,-3.591281
57.680059,0.280132,9.078239,-3.486232
57.713385,0.342533,9.132260,-3.414553
57.746724,0.372761,9.194063,-3.571678
57.780046,0.293599,9.162488,-3.609687
57.812848,0.276989,9.149768,-3.543994
57.846704,0.314699,9.156203,-3.566440
57.879309,0.306169,9.147823,-3.596668
57.913397,0.295994,9.123431,-3.595920
57.946026,0.320086,9.143483,-3.635276
57.980122,0.314849,9.124329,-3.712791
58.013453,0.319338,9.160243,-3.699174
58.046925,0.284920,9.138994,-3.604001
58.080121,0.318739,9.146626,-3.627644
58.113446,0.297490,9.123581,-3.578861
58.146777,0.341635,9.138096,-3.536362
58.180134,0.358096,9.120588,-3.566291
58.213477,0.292851,9.149768,-3.631086
58.246810,0.331309,9.191818,-3.583200
58.280135,0.288063,9.155305,-3.591730
58.313439,0.321283,9.144531,-3.646948
58.346788,0.319637,9.178799,-3.596219
58.380114,0.363483,9.141837,-3.556265
58.413458,0.313801,9.096047,-3.726259
58.446778,0.260079,9.126574,-3.720872
58.480111,0.345675,9.124928,-3.707404
58.513444,0.346872,9.104576,-3.593675
58.546781,0.360939,9.125676,-3.631834
58.580113,0.310060,9.106222,-3.576766
58.613437,0.343580,9.171018,-3.568535
58.646776,0.278486,9.144082,-3.568835
58.680123,0.333853,9.182091,-3.596968
58.713466,0.312903,9.169970,-3.519602
58.746267,0.277139,9.130464,-3.579310
58.780114,0.316644,9.149170,-3.602953
58.813489,0.327718,9.153210,-3.580956
58.846788,0.292253,9.144680,-3.681665
58.880110,0.288661,9.140042,-3.676578
58.913449,0.340737,9.134804,-3.617918
58.946548,0.306768,9.130165,-3.619414
58.979654,0.313951,9.146476,-3.553870
59.013454,0.305870,9.138994,-3.580357
59.046791,0.297939,9.135253,-3.631535
59.080112,0.283873,9.167127,-3.572725
59.113435,0.317842,9.191219,-3.574521
59.146792,0.292103,9.105773,-3.626896
59.180129,0.287464,9.209476,-3.517806
59.213449,0.367074,9.172364,-3.554170
59.246790,0.292702,9.124479,-3.637970
59.280136,0.278336,9.137348,-3.650839
59.313451,0.283424,9.136600,-3.687651
59.346787,0.339390,9.147673,-3.634229
59.380118,0.297341,9.119840,-3.598015
59.413451,0.281329,9.129866,-3.595321
59.446778,0.362585,9.193464,-3.602055
59.480110,0.259182,9.140042,-3.576317
59.513451,0.264269,9.143483,-3.647547
59.546782,0.354953,9.188975,-3.543246
59.580106,0.299286,9.127621,-3.565393
59.613434,0.296892,9.143483,-3.619264
59.646823,0.316944,9.145129,-3.639616
59.680081,0.315447,9.143483,-3.642609
59.713441,0.290756,9.146626,-3.684658
59.746775,0.321283,9.178051,-3.615074
59.779377,0.334153,9.137348,-3.615374
59.813444,0.340737,9.138545,-3.559856
59.846778,0.298687,9.138994,-3.579310
59.880119,0.361837,9.178949,-3.542647
59.913391,0.301830,9.140042,-3.636324
59.946778,0.285968,9.125676,-3.644255
59.980053,0.298388,9.145129,-3.609687
60.013385,0.347471,9.123132,-3.623754
60.046775,0.299286,9.158597,-3.591880
60.080085,0.332956,9.152163,-3.573174
60.113440,0.375604,9.136151,-3.623754
60.146774,0.289858,9.147823,-3.582901
60.180134,0.284771,9.144381,-3.642160
60.213443,0.351062,9.125526,-3.655478
60.246805,0.328317,9.099488,-3.577813
60.280137,0.326521,9.132709,-3.598464
60.313457,0.335350,9.145129,-3.551027
60.346729,0.278934,9.138994,-3.577215
60.380116,0.249455,9.140939,-3.615673
60.413419,0.255590,9.122683,-3.534866
60.446776,0.356150,9.122683,-3.591431
60.480113,0.325473,9.088115,-3.680468
60.513454,0.304074,9.111759,-3.652485
60.546731,0.339989,9.108617,-3.583500
60.580110,0.389970,9.141987,-3.694535
60.613543,0.231498,9.124329,-3.546687
60.646771,0.343879,9.151414,-3.611782
60.680109,0.395955,9.134654,-3.603701
60.713502,0.338642,9.102182,-3.608191
60.746813,0.313053,9.089163,-3.653981
60.780100,0.311557,9.125825,-3.692889
60.813409,0.335200,9.160094,-3.620611
60.846720,0.300184,9.109215,-3.637072
60.880087,0.360490,9.146327,-3.658321
60.913718,0.365578,9.085272,-3.605796
60.946793,0.308564,9.147524,-3.534267
60.980071,0.368870,9.155604,-3.554918
61.013401,0.353157,9.148122,-3.646050
61.046783,0.288512,9.099339,-3.626896
61.080120,0.322630,9.118942,-3.637221
61.113062,0.434413,9.163984,-3.669544
61.146747,0.352708,9.106372,-3.641711
61.180136,0.360640,9.135702,-3.609388
61.213234,0.332507,9.168174,-3.637521
61.246853,0.318440,9.127472,-3.549531
61.280185,0.321732,9.141837,-3.589485
61.313539,0.367523,9.155754,-3.540402
61.346866,0.352559,9.116997,-3.560604
61.380156,0.372162,9.150965,-3.500149
61.413484,0.345675,9.121486,-3.599811
61.446821,0.350913,9.122234,-3.618666
61.480130,0.285219,9.094700,-3.743618
61.513469,0.389970,9.131662,-3.657573
61.546833,0.405832,9.108168,-3.678822
61.580153,0.310060,9.141239,-3.655777
61.613502,0.345376,9.141837,-3.595920
61.646013,0.377699,9.134954,-3.496856
