time_tick,acc_X_value,acc_Y_value,acc_Z_value
0.012891,5.276410,5.944416,-6.143591
0.046225,5.047756,5.385650,-5.805099
0.079546,4.077770,5.092200,-5.312624
0.112916,3.800332,5.145772,-5.398669
0.146215,5.341804,4.802491,-7.058957
0.179173,5.033241,4.904398,-6.798878
0.212868,4.245969,5.280900,-4.999870
0.246266,4.780194,5.063169,-5.163729
0.279560,4.387681,5.993799,-7.256037
0.312946,5.244536,4.863246,-9.460726
0.346218,4.986253,5.124972,-6.141945
0.378753,4.632646,6.646691,-3.315190
0.412899,4.938517,7.045040,-4.197036
0.446224,7.617873,7.047584,-4.902004
0.479556,6.533411,5.689724,-6.733035
0.512848,7.460299,5.988561,-7.147845
0.546209,9.473296,7.898155,-4.574136
0.579197,9.938536,8.190108,-3.780579
0.612876,8.167961,7.946639,-3.138162
0.646282,7.435608,6.615715,-1.724336
0.679558,5.461818,5.762451,-1.536384
0.712905,4.776753,5.255760,-1.886100
0.745941,5.392683,4.677090,-1.313416
0.779551,6.775084,6.398283,0.066142
0.812880,5.131706,7.362732,-0.073175
0.846293,3.875453,6.611225,-0.916713
0.878739,7.985247,7.099810,-0.964898
0.912193,9.559790,6.926074,-0.795502
0.946241,8.482810,6.790049,-0.440549
0.979554,9.765699,7.734146,-1.409936
1.012822,10.221361,11.415961,-0.331908
1.046255,9.043073,6.006369,-2.401320
1.079958,8.574541,5.440569,0.232545
1.112882,6.433001,3.907177,0.554277
1.146235,4.865640,1.620633,0.135876
1.179909,1.857967,2.028111,-1.218842
1.212913,1.150754,4.684872,0.205759
1.246227,2.050408,6.432252,-0.269806
1.279546,5.208173,8.169457,-0.283274
1.312888,8.773566,8.439862,0.154731
1.346248,12.371132,6.326605,0.322780
1.379556,10.159858,9.349392,-4.790220
1.411988,5.027255,10.511370,-3.370558
1.445891,5.100879,9.687286,-2.199452
1.479705,5.377868,8.732414,-0.886036
1.512870,5.680895,7.832611,-1.379558
1.545947,6.438388,6.667491,-0.613835
1.579633,5.957585,9.381565,0.298538
1.612914,6.421628,11.058165,1.869938
1.646262,6.798728,10.437745,-0.671149
1.679556,5.500127,10.086533,-3.367415
1.712879,5.342852,11.694746,-0.582111
1.746291,5.551155,11.340242,0.230450
1.779563,4.381994,9.878081,-1.509299
1.812880,4.179976,9.246438,-1.349779
1.846253,4.862648,9.079735,-2.462973
1.879548,5.622983,8.949995,-3.675680
1.912258,4.332463,8.898219,-0.477361
1.946251,3.949077,8.741692,-1.444503
1.979650,4.074029,7.140512,-2.514750
2.012479,3.886227,7.357794,-3.793598
2.046269,3.843579,8.273609,-1.849437
2.079488,4.540167,7.120909,-2.025417
2.112958,4.684872,6.773438,-4.020607
2.146218,3.726409,6.937297,-4.232052
2.179557,3.835199,7.163857,-4.222625
2.212888,4.780643,6.202102,-4.589998
2.246235,4.467441,5.527810,-4.561416
2.279561,4.584312,5.313073,-4.812816
2.312931,4.924001,5.148765,-4.815360
2.346214,5.265486,4.416113,-4.734703
2.379624,5.681344,3.934412,-5.299156
2.413000,5.501773,4.028089,-5.855379
2.446265,5.033689,4.174589,-5.208023
2.479560,5.265786,4.435417,-5.112701
2.512884,5.497433,4.321389,-5.829491
2.546255,6.913354,4.048740,-5.805548
2.579548,6.001281,4.582067,-4.867586
2.612894,4.973982,4.770916,-5.423958
2.646234,6.732137,5.615950,-7.033667
2.679565,7.826775,5.572554,-6.129525
2.712910,4.592243,6.096454,-6.125185
2.746266,6.284106,6.706847,-5.559385
2.779582,8.210609,6.484029,-3.721770
2.812936,6.928020,6.999100,-5.621936
2.846154,5.192910,7.761082,-4.888386
2.879559,6.561095,7.850419,-3.873059
2.912880,6.789899,8.476974,-4.013723
2.946215,6.769099,9.068363,-2.910555
2.979548,6.090169,8.106607,-2.647034
3.012888,5.468253,7.664412,-3.075611
3.046243,5.239748,9.048161,-2.205288
3.079584,4.742484,9.235813,-2.092607
3.112957,4.759693,7.920751,-2.278164
3.146312,4.896317,7.003888,-1.971546
3.179555,4.472828,8.104662,-1.701740
3.212882,4.635789,7.448029,-2.041878
3.245386,5.132304,6.532513,-2.121638
3.279553,4.920559,6.626938,-0.904143
3.312928,4.772114,7.856554,-0.504147
3.345505,4.328123,8.089997,-1.223630
3.379603,4.339945,7.611140,-1.708025
3.412929,4.595086,8.114838,-0.685365
3.446238,4.414766,8.444800,-0.302877
3.479570,4.010132,8.657593,-0.563705
3.512930,4.070139,8.454976,0.024541
3.546282,3.849714,8.872779,-0.184959
3.579566,3.810807,9.126574,-0.750310
3.612886,4.677090,8.982916,-0.965197
3.646225,4.981015,8.680638,-0.460900
3.679096,4.468488,8.564215,-0.366326
3.712159,4.577428,8.554040,-0.512976
3.746215,4.703727,8.648913,-0.360490
3.779573,4.520564,8.740345,-0.722327
3.812892,4.464897,8.632902,-0.531681
3.846241,4.141967,9.017634,-0.348967
3.879581,4.135682,8.801549,-0.646308
3.912026,3.993671,8.581424,-0.613985
3.945739,4.353413,9.217557,-0.054919
3.979608,4.483003,9.016885,0.005088
4.012941,4.657038,8.736006,-0.345526
4.046235,4.423745,8.683481,0.007183
4.079581,4.172794,9.213666,-0.347321
4.112889,5.086962,9.231623,-1.297404
4.146232,5.444010,9.474194,-0.310509
4.179549,5.010644,9.675015,0.259780
4.212890,5.171062,9.913845,0.073774
4.246233,5.706634,10.108082,-0.274296
4.279438,5.167021,11.245518,-0.051178
4.312915,4.432274,11.715846,-0.056116
4.345589,4.469685,10.457947,-0.529137
4.379558,4.265722,9.795178,-0.483197
4.412909,3.541300,9.293126,-0.501603
4.446290,3.971524,8.924107,-0.786523
4.479552,4.171297,8.341098,-1.028646
4.512880,4.322437,8.601776,-1.209265
4.546217,4.125057,9.209027,-1.010240
4.579555,4.272306,9.096645,-1.684680
4.612886,4.881203,8.431781,-2.861921
4.646243,5.318759,7.796547,-2.932403
4.679600,4.384838,8.275854,-2.496344
4.712880,3.554918,8.125612,-2.515049
4.746211,4.497818,6.872801,-2.404164
4.779577,5.434583,6.276474,-2.310936
4.812938,5.278954,7.176726,-3.347213
4.846215,5.111354,6.629482,-4.135383
4.879547,5.338662,6.710139,-4.102162
4.912891,5.798066,6.796483,-4.142416
4.946224,5.484414,6.143591,-4.346230
4.979547,5.218050,5.436977,-4.533433
5.012928,5.466756,5.262344,-4.655242
5.046238,5.174653,4.718691,-4.470733
5.079552,5.378168,4.563062,-4.349672
5.112977,5.587368,3.858543,-5.057632
5.145416,5.536190,3.926781,-4.850826
5.179621,6.554511,3.604300,-4.780494
5.212895,6.837934,4.029136,-5.020671
5.246217,6.230234,4.326926,-5.287484
5.279545,6.395889,4.404590,-5.158791
5.312151,6.504380,4.496022,-5.202786
5.345343,6.694577,4.699836,-5.571805
5.379561,6.440034,5.063169,-5.365149
5.412911,5.366046,5.061972,-5.820362
5.446224,6.304906,4.981763,-6.446319
5.479544,7.781882,4.768821,-5.962972
5.512945,7.998565,4.843942,-4.929388
5.546233,6.436592,5.040124,-6.254028
5.579549,7.573878,5.211615,-5.557290
5.612892,6.826562,5.504915,-6.036596
5.646260,7.295243,6.418785,-4.116229
5.679552,7.190044,7.124351,-5.871391
5.712888,6.868312,7.213239,-5.342552
5.746249,7.600216,8.415021,-3.932467
5.779556,7.220272,8.398112,-3.422633
5.812908,7.339089,7.384281,-3.352750
5.846223,6.102739,6.651779,-2.934648
5.879551,4.938217,7.352706,-2.784855
5.912933,4.960664,8.071441,-2.300910
5.946213,5.275363,7.829020,-2.788147
5.978612,5.352279,7.937212,-1.530398
6.012887,5.183931,7.662916,-1.806490
6.046259,4.843044,7.231795,-1.954636
6.079566,4.814612,6.481186,-2.227136
6.112946,4.964704,6.993413,-1.770276
6.146224,4.760292,7.267110,-1.070695
6.179565,4.592841,7.374255,-1.040168
6.212895,4.415066,7.521503,-1.285134
6.246246,4.578027,8.431632,-1.091346
6.279562,4.686368,8.310571,-1.159733
6.312898,4.847085,8.661932,-1.169909
6.346215,4.805334,8.402900,-0.716939
6.379556,4.495723,8.639187,-0.118517
6.412925,4.031531,8.548204,-0.362585
6.446224,3.604450,8.358905,-0.873466
6.479547,4.604513,8.339901,-0.758690
6.512885,5.228225,8.747079,-0.631643
6.546293,4.335605,8.576486,-1.313416
6.579555,4.302085,8.886397,-0.607700
6.612175,4.265572,8.830879,-0.537817
6.646236,4.275000,8.806637,-0.224464
6.679604,3.991576,8.753215,-0.633738
6.712881,4.414916,8.870385,0.090833
6.746229,4.246568,8.997881,0.156527
6.779571,4.337251,9.153060,-0.131985
6.812939,4.275449,9.067764,-0.500556
6.846265,4.575483,9.137498,-0.482898
6.879579,5.083371,9.551560,0.166253
6.912888,5.091901,9.983130,0.442345
6.946251,5.151907,10.480393,0.406580
6.979120,5.027704,11.148250,-0.257835
7.012901,3.974517,11.501557,-0.793557
7.046224,3.672088,11.078367,-0.760037
7.079630,4.415066,9.402216,-1.163324
7.111983,4.758047,8.791373,-1.464556
7.146249,4.936422,8.871283,-1.685877
7.179017,4.693701,8.785986,-1.717153
7.212890,4.007438,9.765250,0.731754
7.245839,4.001452,9.110861,0.155329
7.279561,4.574884,8.642479,-1.742742
7.312900,4.893773,8.223179,-3.371755
7.346220,4.759843,8.694854,-2.258112
7.379566,5.074991,8.543714,-2.163538
7.412875,5.087411,7.703320,-2.820021
7.446219,5.163430,7.236583,-2.460579
7.479559,5.243339,7.183011,-2.936743
7.513012,5.987514,6.525480,-3.934412
7.546217,5.935139,6.190729,-3.475457
7.579597,5.785047,6.445720,-3.305014
7.612012,5.834878,6.519943,-3.919448
7.646213,5.863160,5.756166,-4.252553
7.679558,5.412286,5.321453,-4.189703
7.712960,4.714800,5.001815,-4.383341
7.746245,4.684124,4.469536,-3.866774
7.779551,5.058231,4.028987,-3.993671
7.812880,5.713068,3.846722,-4.965303
7.846251,6.451107,3.482491,-4.827631
7.879505,5.927207,3.668497,-4.546452
7.912603,6.078347,4.086899,-5.567017
7.946263,7.061351,3.919298,-5.096390
7.979561,6.529820,4.199280,-4.391422
8.012301,5.872737,4.644318,-5.287334
8.046235,6.337229,4.885094,-6.315681
8.079643,9.936591,4.925049,-8.178735
8.112947,7.762429,4.806681,-3.943690
8.146225,4.764482,4.929388,-5.989758
8.179656,7.964596,5.461369,-5.164028
8.212919,8.576636,5.290028,-3.484586
8.246256,7.573729,5.890545,-4.135532
8.279557,6.502734,6.109922,-6.691434
8.312934,6.833296,8.020712,-3.986488
8.346218,7.846378,8.740345,-2.684594
8.379600,6.707446,8.134890,-3.735986
8.412881,6.785110,7.564900,-3.390610
8.446214,5.532599,7.223714,-2.681602
8.479552,4.603765,7.614432,-2.498139
8.512957,5.346742,7.880198,-2.182842
8.546284,4.847384,8.109600,-2.442023
8.579553,5.073644,8.281091,-2.039633
8.612890,5.630914,7.991083,-1.804694
8.646245,5.881417,7.412713,-1.295758
8.679572,4.820748,7.353604,-1.734212
8.712943,5.111204,6.898390,-1.411432
8.746243,5.515390,6.750992,-0.597674
8.779639,5.259950,7.433064,-0.482299
8.812899,4.899310,7.546494,-0.948886
8.846259,4.742185,7.399096,-1.787784
8.879588,4.847534,7.644061,-1.492688
8.912946,4.981614,8.567208,-0.629249
8.946235,5.267282,8.282887,-0.568194
8.979554,5.102076,8.010686,-0.722775
9.012912,4.440804,8.612999,-0.906387
9.046244,4.606758,8.479817,-0.799243
9.079614,4.763285,8.254305,-0.461798
9.112888,4.566803,8.682583,-0.404186
9.146289,4.645216,8.508099,-0.831715
9.179553,5.261296,8.425347,0.011523
9.212925,4.680532,8.266875,-0.230151
9.246262,4.217986,8.752616,-0.657531
9.279590,4.785881,8.475777,-0.667408
9.312894,5.116292,8.928147,0.199923
9.345610,4.343387,9.235514,-0.179422
9.379622,4.938517,9.172514,-0.173735
9.412885,5.342403,8.740046,-0.347621
9.446229,5.207126,8.590104,0.121211
9.478935,4.670057,9.303152,0.385181
9.512965,5.477680,9.969662,0.022596
9.546195,5.794025,10.340328,-0.252448
9.579549,5.849094,10.898496,-0.061803
9.612984,4.459360,10.943239,-0.394758
9.646244,3.336289,10.739874,-0.631044
9.679545,3.837743,9.749537,-0.775599
9.712910,4.708665,8.825342,-1.410983
9.746217,5.162831,8.971993,-2.241352
9.779547,4.974730,9.133308,-1.781050
9.812891,4.215741,9.735172,0.139916
9.846224,4.140920,8.967503,-0.154432
9.879564,5.082024,8.113341,-1.756958
9.912909,5.436977,7.820191,-2.801765
9.946222,5.127965,7.961903,-2.026764
9.979555,4.907540,7.734296,-1.840608
10.012891,4.753857,7.203363,-3.041493
10.045545,4.499913,7.067786,-2.787250
10.079558,4.865940,7.354951,-2.971610
10.112895,5.556093,6.597758,-2.934349
10.146240,5.700199,6.284405,-3.306810
10.179551,5.821709,5.975991,-3.950873
10.212970,6.229786,5.428597,-4.138675
10.246291,5.653810,5.097288,-3.684509
10.279545,5.176598,5.034587,-4.296099
10.312963,5.106117,4.969493,-4.394115
10.346249,5.567466,4.552438,-4.192397
10.379543,6.141347,4.599725,-4.688014
10.412937,6.780023,4.698340,-5.467055
10.446232,6.688441,4.660181,-4.609003
10.479545,6.294880,4.152741,-4.995680
10.512544,6.115458,4.189554,-5.541578
10.546216,6.491960,4.341740,-4.999720
10.579547,6.427314,4.341740,-5.753622
10.612924,6.254926,4.563960,-4.716446
10.646222,6.241158,4.726024,-5.441167
10.679617,7.792208,4.727520,-6.628285
10.712886,7.574776,4.747123,-4.568599
10.746235,5.897578,5.589164,-5.080827
10.779621,7.437254,5.468103,-5.981827
10.812881,8.033881,6.253579,-4.391572
10.846216,7.600964,6.685897,-4.743981
10.879867,5.826198,6.782866,-5.375474
10.912934,6.631427,7.084845,-4.276047
10.946236,7.124950,7.470475,-3.632134
10.979549,6.985033,7.954869,-3.442087
11.012906,6.434497,7.086641,-4.012975
11.046262,6.528622,6.714180,-3.416498
11.079549,5.835027,7.233590,-2.543930
11.112905,5.548910,7.684914,-2.240903
11.146222,5.603380,8.002157,-2.498289
11.179614,6.363267,7.928832,-2.426610
11.212889,6.138803,7.626702,-1.830881
11.245589,5.759757,7.718434,-1.173650
11.279645,5.173007,7.738336,-1.133545
11.312878,5.194107,6.928020,-2.031403
11.346119,4.889583,6.988775,-1.603873
11.379305,4.704026,7.137370,-0.591987
11.412161,5.057632,7.342231,-0.167301
11.446257,5.245733,7.702721,-0.495318
11.479563,5.059877,7.912072,-0.815704
11.512970,5.010495,8.176042,-0.408675
11.546219,5.135896,8.257896,-0.284172
11.579565,5.070352,8.543864,-0.560114
11.612884,4.653746,8.657742,-0.418701
11.646265,4.771365,8.534586,-0.239129
11.679528,4.676791,8.341996,0.093377
11.712885,4.488391,8.461710,0.098016
11.746192,4.387531,8.562719,-0.301531
11.779543,4.419256,8.499420,-0.127197
11.812904,4.108297,8.569453,0.124503
11.846294,4.160074,8.755310,-0.313652
11.879557,4.394115,8.720892,-0.715293
11.912889,4.600024,8.773267,-0.556821
11.946215,4.626661,8.760996,0.211894
11.979549,4.331265,9.158597,0.798794
12.012887,4.563661,9.005213,0.397003
12.046240,5.067060,8.902409,-0.145004
12.079630,5.062122,9.327395,-0.141862
12.112891,4.976376,9.826154,-0.158472
12.146309,5.129611,9.896487,-0.186754
12.179577,4.989096,10.159559,0.309312
12.213019,4.770916,10.429664,0.132284
12.246233,4.553934,11.110390,-0.444140
12.279627,4.368377,11.033923,-1.034482
12.312916,4.746525,10.201908,-0.784578
12.345894,4.423446,9.304050,-0.041451
12.379552,4.156931,9.010600,0.439801
12.412891,3.776988,8.845395,-0.165206
12.446242,3.941146,8.715205,-0.858951
12.479543,5.061972,8.803644,-1.536384
12.512989,4.670356,9.671274,0.188849
12.546246,4.768672,8.827587,-0.974176
12.579545,5.773973,8.002755,-4.897664
12.612883,3.911667,8.500468,-3.600858
12.646230,3.973020,8.965558,-1.146714
12.679600,5.247529,7.365276,-2.135255
12.712883,5.636900,6.116207,-2.656611
12.746237,5.251570,6.108575,-3.479498
12.779627,4.748320,6.567530,-3.565692
12.812925,5.050898,6.067273,-3.790905
12.846235,4.750864,5.235408,-3.145046
12.879586,4.809674,5.448799,-3.698276
12.912882,5.616249,5.507459,-4.602867
12.946220,6.671831,4.798900,-4.782589
12.979560,6.367756,5.175850,-4.878061
13.012885,5.382956,4.969044,-4.916220
13.046226,5.693166,4.046794,-4.506946
13.079542,5.986167,3.577813,-5.233463
13.112881,5.999934,3.663110,-5.149513
13.146290,6.400827,3.536362,-4.447688
13.178905,6.213175,3.246803,-5.037879
13.213144,6.790049,3.818289,-5.532000
13.246258,6.834044,4.424792,-5.183781
13.279641,6.584140,4.916968,-5.584525
13.312883,7.702871,4.791118,-6.959295
13.346250,7.503846,4.613043,-5.049701
13.379567,6.035699,4.845289,-5.277907
13.412962,6.487171,5.439072,-4.916519
13.446218,7.791160,5.293919,-5.034737
13.479554,6.660907,6.388407,-5.008549
13.512948,6.785559,7.087689,-4.835562
13.546247,6.611225,6.890459,-5.172259
13.578987,7.798044,7.609942,-4.452177
13.612972,7.176128,7.754797,-3.996065
13.646217,6.387360,7.333103,-3.398092
13.679545,6.465324,7.007630,-3.199217
13.712893,7.093225,7.419297,-2.818824
13.746288,6.352493,6.557354,-2.459083
13.779552,5.842510,7.186453,-3.010068
13.812910,5.639294,7.498309,-2.732929
13.846295,5.772177,8.129952,-1.940270
13.879552,5.608318,8.085208,-1.931142
13.912919,5.965067,8.022957,-1.688571
13.946257,5.343750,8.296055,-1.769677
13.979587,4.978471,8.206419,-1.605519
14.012895,5.088010,7.554575,-1.271067
14.046329,5.288082,7.487086,-1.073688
14.079554,4.539568,7.774400,-1.125914
14.112889,4.412971,7.967739,-1.444503
14.146296,4.968295,7.385628,-1.248471
14.178852,4.813714,7.295692,-0.613686
14.212906,4.580122,7.727861,-0.855359
14.246215,4.977424,7.926886,-0.173436
14.279613,4.865042,7.943347,0.177177
14.312949,4.301935,8.229764,0.140066
14.346245,3.398840,8.632004,-0.839198
14.379635,3.952519,8.896872,-0.833661
14.412960,4.522359,8.388086,-0.922698
14.446275,4.899310,8.592797,-0.231498
14.479558,4.682777,9.149619,0.041601
14.512965,5.186924,8.684977,-0.357946
14.546237,4.597031,8.633500,-0.159669
14.579556,4.333809,8.466349,0.325324
14.612879,5.078732,8.697847,0.221322
14.646232,5.470048,8.772818,-0.249754
14.679576,5.409593,9.001921,0.502501
14.712884,4.909635,9.283399,0.904592
14.746257,5.458526,9.617702,-0.218329
14.779559,6.272134,9.719758,-0.698084
14.812910,5.804351,10.042538,-0.297191
14.846227,5.455982,10.405572,0.250053
14.879545,4.887189,11.205862,-0.052375
14.912900,4.692055,10.836544,-0.552781
14.946217,4.484949,9.768692,-0.692548
14.979558,4.110991,9.158597,-0.404335
15.012916,4.097523,9.015090,-1.274060
15.046216,5.137093,8.889539,-2.186433
15.079553,5.072597,9.521182,-1.172752
15.112908,4.200029,9.443966,-0.001048
15.146223,4.778249,8.307578,-1.417418
15.179586,5.222090,7.554275,-4.252404
15.212908,4.664221,7.509083,-2.962182
15.246215,5.039376,7.332355,-2.141241
15.279554,5.569860,6.372246,-2.526871
15.312885,5.403906,6.229935,-2.818974
15.346285,5.493692,6.115907,-3.935161
15.379556,5.735066,5.895334,-3.836546
15.412902,6.085979,5.702294,-3.804223
15.446214,6.169928,5.599639,-4.163366
15.479556,5.574649,5.320555,-4.001452
15.512975,5.071699,4.849928,-4.542112
15.545299,5.403457,4.220829,-4.251356
15.579555,5.508955,3.952220,-4.134934
15.612883,6.011008,3.444332,-4.554233
15.646227,6.501088,3.532322,-4.344284
15.679553,6.266298,3.500897,-4.497968
15.712895,6.901982,3.678822,-4.843942
15.746238,6.515903,3.957607,-5.480224
15.779573,6.543736,4.264974,-5.122128
15.812880,6.517699,4.788724,-4.714950
15.846219,6.908267,5.026956,-5.634955
15.879551,8.145066,4.685620,-6.071314
15.912918,7.292400,4.946448,-4.970989
15.946220,5.841462,4.836161,-5.533647
15.979556,6.245348,4.916669,-6.583093
16.012958,8.555686,5.714266,-4.020008
16.046233,7.327566,5.892640,-5.081575
16.079342,6.849307,5.872588,-5.812581
16.112905,7.608446,7.050278,-3.656226
16.146221,7.172087,6.736327,-5.188570
16.179546,6.692930,7.725467,-4.028987
16.212910,7.776794,8.362646,-3.584098
16.246061,7.153980,7.535420,-3.002137
16.279548,6.171125,7.007929,-3.356342
16.312923,5.654408,7.718434,-2.431249
16.346227,6.435245,8.080121,-2.238658
16.379561,6.071314,8.002157,-1.998781
16.412901,5.310679,7.559513,-1.854226
16.446212,5.225083,7.686709,-1.617042
16.479558,5.205480,7.371262,-1.360404
16.512915,5.108361,6.938495,-1.516931
16.546220,5.570159,6.662104,-1.495382
16.579860,5.638846,6.952711,-0.778143
16.612952,5.025010,7.366024,-0.481252
16.646223,4.783935,7.830067,-1.425798
16.679549,5.287634,7.628648,-1.572298
16.713314,5.127815,7.967439,-0.922549
16.746273,5.076038,8.013978,-0.246312
16.779558,4.965752,7.846079,-0.057014
16.812959,4.778548,8.064408,0.456411
16.845643,4.271259,8.518874,0.614284
16.879550,3.974517,8.727476,0.348518
16.912926,4.239385,8.677495,-0.590940
16.946221,4.808178,8.528301,-1.545063
16.979552,5.292871,8.625120,-0.540211
17.012883,4.634891,8.687372,-0.217431
17.046221,4.352664,8.648464,-0.081855
17.079598,4.627110,8.446746,-0.331010
17.112892,4.956623,8.341996,0.270704
17.146265,4.635639,8.726578,0.407178
17.179539,4.821346,8.998330,0.470328
17.212899,5.075889,8.913931,0.103703
17.246218,4.494077,9.280706,0.301680
17.279554,4.605411,9.365105,-0.467784
17.312926,5.883512,9.435886,-0.435910
17.346225,5.984072,9.743552,0.146949
17.379661,5.906257,10.130528,0.193488
17.412869,5.865255,10.335838,-0.741481
17.446221,5.796420,10.475904,-0.961157
17.479554,4.951685,10.499099,-0.132434
17.512962,4.285774,10.047027,0.030976
17.546212,4.286522,8.571099,-0.285668
17.579546,4.360147,8.087752,-0.488285
17.612897,4.452327,8.120674,-1.793920
17.645470,5.019473,8.496427,-1.776112
17.679551,4.692354,9.470304,-0.270255
17.712888,4.539269,8.847490,-0.309911
17.746243,6.567081,7.639272,-3.923937
17.779559,6.061138,7.839046,-3.617768
17.812929,5.109409,8.361300,-2.973555
17.846282,5.342852,7.946040,-1.909594
17.879549,5.720850,7.190493,-2.163837
17.912886,6.297125,6.441680,-3.615523
17.946228,6.150924,6.209284,-3.338085
17.979581,6.437340,5.917630,-4.221428
18.012868,5.349137,5.931397,-4.098571
18.046218,5.002863,5.603230,-3.601008
18.079552,4.770617,4.705373,-3.683611
18.112888,5.220145,4.343985,-4.391871
18.146242,5.611910,4.199430,-4.446790
18.179555,5.362605,3.868569,-4.734553
18.212864,5.787591,3.756188,-4.738594
18.246229,6.368056,3.797040,-4.830025
18.279552,6.196415,4.149749,-4.747123
18.312883,6.589078,4.426738,-4.752660
18.346242,6.398433,4.211850,-5.185577
18.379562,6.375089,4.455768,-5.546217
18.412996,7.811811,5.083969,-6.422376
18.446227,7.164306,4.840500,-5.445656
18.479524,5.533946,4.333061,-5.341804
18.512853,6.416241,5.187672,-5.840265
18.546235,7.678629,5.753921,-5.256957
18.579543,6.375687,5.896381,-5.622235
18.612339,6.316129,5.769933,-5.376073
18.646270,7.358842,7.089335,-4.203321
18.679469,7.002242,6.606287,-4.928490
18.712653,6.415492,7.298087,-4.559471
18.745666,6.114710,7.924342,-4.283529
18.779656,7.375751,8.268072,-3.849864
18.812885,7.287163,7.824979,-2.912950
18.846223,5.833980,7.077812,-2.531061
18.879555,5.192610,7.704666,-2.568322
18.912964,5.958483,7.902644,-2.878532
18.946216,5.566119,7.314847,-2.346401
18.979545,4.867885,8.171702,-2.251827
19.012888,5.534245,7.549187,-1.916028
19.046257,5.423958,7.366174,-2.572662
19.079568,4.990143,7.266213,-2.527020
19.112932,5.118986,6.876393,-1.548655
19.146228,5.208772,7.515518,-1.741545
19.179311,5.103423,7.624607,-1.602077
19.212906,4.591943,7.589591,-1.855273
19.246220,4.710311,8.034479,-1.963465
19.279543,5.597993,7.146498,-1.616742
19.312883,6.229037,7.748512,-0.658279
19.346227,5.248876,8.209113,-1.556436
19.379553,5.733869,7.319934,-2.677412
19.412923,5.959081,7.616078,-2.181046
19.446352,5.145173,8.197590,-1.715956
19.479558,4.770468,8.496278,-1.645623
19.512956,4.989694,7.779638,-0.964299
19.546190,5.129910,8.049144,-0.798495
19.579574,4.826135,8.048097,-0.623113
19.612916,4.838854,8.146562,-0.815853
19.646218,5.843707,8.264331,-1.156441
19.679104,6.264353,8.366836,-1.567660
19.712887,5.454635,9.078688,-0.779939
19.746251,5.732223,8.880112,-0.916563
19.779553,5.726087,8.462009,-0.846231
19.812885,5.239149,8.840606,-0.725619
19.846242,5.184081,9.649576,0.110436
19.879550,5.134399,9.656759,-0.738787
19.912903,5.292123,9.160692,-0.897708
19.946208,4.729166,9.709583,-0.622215
19.979552,4.571293,9.839922,-0.379345
20.012907,4.812068,9.479881,-0.973727
20.045424,5.103573,9.742953,-0.648253
20.079574,4.336802,9.667383,-1.062016
20.112920,4.770468,8.663429,-1.681987
20.146244,5.240795,8.100173,-1.929197
20.179572,5.597544,8.072638,-1.387340
20.212901,5.596048,8.003952,-1.150305
20.246221,5.589314,7.687757,-1.886100
20.279612,6.233078,8.091793,-2.957094
20.314285,6.777778,8.113042,-2.915494
20.346213,5.785496,8.274956,-2.741159
20.379590,4.840201,7.533026,-2.370943
20.412887,5.240646,6.929366,-3.704710
20.446231,5.773375,6.586085,-3.974068
20.479551,5.856426,6.573216,-4.418956
20.512902,6.647888,6.147332,-4.850975
20.546209,7.456109,5.989908,-4.387382
20.579538,6.889861,5.490250,-4.624117
20.612894,6.449012,5.254712,-4.546602
20.646226,7.199472,4.488690,-3.667300
20.679536,5.196202,3.689596,-4.613492
20.712878,4.293107,2.870900,-4.028238
20.746209,4.156931,2.906665,-3.265209
20.778764,7.334150,2.039484,-3.291995
20.812884,5.675957,3.298729,-5.163580
20.846245,5.010046,4.347876,-5.129611
20.879973,4.857410,4.135084,-6.438088
20.912888,7.193785,4.443647,-7.654835
20.946206,8.052437,5.777265,-4.731560
20.979584,6.945228,4.210504,-6.183247
21.012889,7.627750,4.283230,-5.486808
21.046217,8.090745,4.472828,-4.124309
21.079550,7.675785,4.553934,-6.101392
21.112895,7.527040,6.103038,-3.973768
21.146216,6.129076,4.524305,-5.220444
21.179609,8.507501,6.138503,-4.252853
21.212904,7.351659,7.672044,-4.000704
21.246255,7.170740,8.654450,-3.577514
21.279634,7.907732,8.339452,-3.890268
21.312891,8.510194,7.211443,-2.960237
21.346217,7.102354,6.001730,-3.557611
21.379552,6.387808,5.929901,-3.933814
21.412933,6.444224,6.486124,-2.641348
21.446273,5.592307,6.876542,-2.189576
21.479552,4.805634,6.366559,-2.325002
21.512904,6.366858,6.893901,-1.131450
21.546214,6.325407,7.095171,-1.434028
21.579566,6.173819,6.243253,-2.085723
21.612902,5.849244,6.261659,-2.340416
21.646230,5.435032,6.432103,-2.648231
21.679547,4.866389,7.294645,-3.381033
21.712887,5.572703,7.866131,-1.996387
21.746312,5.465110,8.599980,-2.001774
21.779575,6.705201,7.950230,-1.582325
21.812900,6.072062,7.294645,-1.784193
21.845574,5.441616,7.726963,-2.151566
21.879562,5.566867,7.546494,-2.188528
21.912900,5.695710,7.128840,-1.526657
21.946254,4.644767,7.335797,-1.930993
21.979572,5.467953,7.437404,-1.974688
22.012258,6.340821,7.024988,-1.287528
22.046214,5.697655,8.116933,-0.944247
22.079583,4.821346,8.238592,-1.368485
22.112930,6.166337,8.203127,-1.800803
22.146305,5.768885,8.413525,-0.684018
22.179576,4.538820,8.763989,-1.289174
22.212895,4.723629,8.281540,-1.273162
22.245795,4.756700,8.283485,-1.264034
22.278961,4.754306,9.291331,-0.895613
22.312961,4.738444,9.498436,-1.466800
22.346280,5.295116,8.711464,-1.394373
22.379551,5.225382,8.894178,-0.821390
22.412890,4.981464,9.184635,-0.610244
22.446229,4.897514,9.256913,-0.488135
22.479576,4.000405,9.086469,-1.189212
22.512947,4.792166,9.856831,-2.010902
22.546287,5.824702,10.134419,-1.047950
22.579548,5.268779,9.717214,-1.128009
22.612883,4.033775,8.903905,-1.314913
22.646274,4.864743,8.409185,-1.863204
22.679628,5.540979,8.488047,-2.414639
22.712884,5.963122,7.815253,-3.585595
22.745537,6.572019,8.622127,-2.254820
22.779573,5.952647,9.300159,-1.989952
22.812939,6.902730,7.483494,-3.946384
22.846287,5.955640,7.900250,-3.181409
22.879642,5.241543,9.017185,-1.870387
22.912951,6.199408,7.666358,-2.851746
22.946286,6.887167,6.161698,-3.739278
22.979630,6.002628,7.492622,-3.976911
23.012888,5.797467,7.093076,-3.781328
23.046259,5.882315,5.714714,-4.132390
23.079586,5.533048,5.621188,-4.516074
23.112884,5.985419,5.218349,-4.382593
23.146287,5.966115,4.911880,-4.059065
23.179610,5.320705,4.736648,-4.209456
23.212894,5.099832,3.857496,-3.599811
23.246322,4.395762,3.679870,-4.468488
23.279530,4.515177,3.014707,-5.020072
23.312987,5.254712,2.920581,-4.568898
23.346245,6.036297,3.124844,-4.896916
23.379590,7.545297,3.012163,-7.480202
23.412896,7.393110,3.341677,-6.009062
23.446216,5.976440,4.187309,-5.725040
23.479609,6.774187,5.067359,-7.154878
23.512912,6.951813,4.587454,-7.484991
23.546304,5.686432,4.989096,-5.387894
23.579544,6.213923,4.855764,-4.782589
23.612883,6.511862,4.433023,-6.682904
23.646211,6.913205,4.543310,-5.645280
23.679568,7.529584,5.509404,-3.018149
23.712865,6.449162,4.828679,-6.715826
23.745581,7.014663,5.344348,-5.033689
23.779563,8.288573,7.104897,-4.201525
23.812424,6.455148,7.016159,-3.955213
23.846370,6.220807,7.527639,-3.495061
23.879588,6.445571,7.364079,-3.296484
23.912888,6.784213,7.105646,-3.163302
23.946209,5.724741,7.673840,-3.175872
23.979613,5.910896,7.287013,-3.000790
24.012934,6.312388,7.029028,-2.423767
24.046224,6.176513,7.086491,-2.053700
24.079544,5.957286,7.245711,-2.681302
24.112922,6.889262,6.993264,-2.612167
24.146246,6.148230,6.875495,-2.779019
24.179676,5.826348,7.080057,-2.599747
24.212882,6.247593,7.170740,-2.145281
24.246215,6.656567,6.980395,-2.034396
24.279551,5.880818,7.416604,-1.899717
24.312973,5.319807,7.706462,-2.103830
24.346258,5.228076,7.906984,-1.617491
24.379634,5.691819,7.805526,-1.274359
24.412962,5.938281,7.669051,-1.377014
24.446260,5.595449,7.542753,-2.113557
24.479588,5.848944,7.487086,-2.034097
24.512945,6.459637,6.909464,-1.344542
24.546278,5.809738,7.214137,-1.113942
24.579540,6.128777,6.694128,-1.364444
24.612900,6.295928,6.646092,-1.515434
24.646202,5.791332,7.386376,-0.661272
24.679557,5.596347,8.429986,-0.819295
24.712881,5.191114,8.257298,-1.628564
24.746290,6.224548,8.191305,-1.726880
24.779592,6.542839,8.157037,-1.565415
24.812884,5.768885,8.512140,-1.194001
24.846253,6.376286,8.303388,-0.910577
24.879618,6.923081,8.320148,-0.207255
24.912813,6.376735,8.916924,0.504746
24.946219,7.246460,9.912798,-0.858651
24.979270,7.152484,9.323354,-1.686326
25.012954,6.715377,9.020178,-0.924045
25.046559,5.824552,9.531657,-0.517914
25.079551,4.835263,9.525522,-1.462461
25.112909,5.074093,8.540273,-1.083415
25.145976,5.045960,7.596923,-0.585702
25.179572,4.689361,6.863374,-0.925841
25.212978,5.124972,7.206655,-0.756146
25.246269,4.874170,7.414209,-0.236585
25.279569,4.531338,7.821837,-0.737141
25.312965,4.889883,8.231559,-2.236414
25.346096,5.807643,8.620930,-4.221876
25.379549,6.140748,8.544612,-3.543096
25.412884,5.765443,8.992943,-2.168027
25.446288,6.315980,8.296953,-2.049061
25.479629,6.239662,6.753536,-2.113407
25.512975,5.875730,6.539097,-3.924686
25.546257,6.106629,6.621251,-3.901790
25.579567,6.295628,6.575910,-3.602804
25.612885,6.458290,5.863909,-3.974816
25.646285,6.682156,5.329683,-4.132540
25.679536,6.714928,5.114946,-3.478600
25.712885,5.779061,5.233313,-4.442749
25.745949,5.400315,4.912329,-4.782439
25.779545,5.293619,4.802641,-3.919448
25.812886,4.941060,3.911218,-4.117126
25.846222,5.390438,3.653533,-4.971438
25.879552,6.428661,3.820085,-4.818204
25.912906,6.715078,3.747957,-4.881802
25.946257,6.603145,3.580806,-5.596347
25.979528,6.350398,4.004894,-5.463314
26.012885,6.486124,3.714587,-5.625976
26.046293,6.717023,4.348624,-5.786244
26.079552,6.595663,4.625912,-5.467953
26.112758,6.404120,4.436913,-5.479625
26.146218,6.491361,4.237589,-6.029264
26.179544,7.074670,4.281734,-5.764845
26.213020,6.822521,4.358800,-5.368291
26.246217,7.001793,4.493329,-5.296462
26.279577,7.080506,4.354460,-5.584375
26.312873,7.426929,4.711807,-5.031295
26.346199,7.100857,5.395227,-4.238038
26.379579,7.134676,5.078732,-5.525267
26.413031,7.178821,6.074755,-4.723779
26.446215,7.199621,6.419982,-5.043416
26.479884,6.702807,7.340286,-3.862135
26.513300,7.219225,8.044506,-3.748107
26.546219,8.070394,8.084161,-3.791503
26.579551,8.125612,7.495017,-3.326862
26.612923,6.616463,7.111182,-2.968168
26.646251,6.617810,7.471373,-3.028025
26.679650,7.107142,6.763562,-2.316922
26.712883,6.795885,6.762963,-1.435076
26.746196,6.091815,7.696286,-1.162127
26.779677,6.445421,7.481399,-1.775214
26.812937,6.524732,6.436742,-2.109367
26.846338,5.403008,6.636665,-2.231176
26.879634,5.317861,7.071826,-1.399760
26.913209,5.766940,6.913953,-0.768716
26.946315,5.347790,6.837785,-0.504746
26.979588,4.923852,7.462245,-0.619522
27.012854,4.868184,7.159816,-1.424152
27.046249,5.713667,7.431119,-1.077280
27.079897,5.955191,7.613683,-0.424238
27.112979,5.497583,8.127557,-0.226410
27.146414,5.443561,7.934668,-0.836953
27.179664,5.371883,7.286265,-0.712450
27.213094,5.183183,7.798493,-0.526594
27.246226,5.001965,8.976482,-0.131087
27.279666,4.678287,8.025800,-0.870623
27.312991,5.685983,7.441145,-0.749412
27.346332,6.630829,8.208514,0.206358
27.379706,5.650518,8.015924,-0.080658
27.413187,5.016481,7.714543,-0.752255
27.446346,5.665183,8.321046,-0.022596
27.479626,5.744643,7.774999,-0.200821
27.513152,5.849244,8.171103,0.233443
27.546555,5.981827,8.188761,0.046988
27.580006,6.180852,8.618686,0.581213
27.613018,5.771728,8.882955,-0.259780
27.646402,5.745840,9.391142,-0.300633
27.679895,6.403222,9.301207,-0.661571
27.713041,6.676470,9.747143,-0.183013
27.746364,6.146734,9.739511,0.195434
27.779832,6.121743,10.678371,-0.084848
27.812994,6.235771,10.327009,-0.894266
27.846418,5.091601,9.587324,-0.440848
27.879859,4.427486,8.804692,-0.401193
27.913075,4.722881,8.237545,-0.198277
27.946467,4.824788,7.712597,-0.399547
27.979933,5.205031,7.816300,-1.023109
28.013097,5.446554,8.638139,-0.858053
28.046443,5.931697,9.028109,-1.036128
28.080162,5.570309,8.788830,-3.018747
28.113079,5.037730,8.223179,-3.492517
28.146457,4.828080,8.356361,-2.471802
28.180050,5.658449,7.555023,-1.925605
28.213109,5.773075,6.501687,-1.771922
28.246393,5.419918,6.611375,-2.437684
28.280362,5.909550,6.493157,-3.245157
28.313193,6.759522,5.210567,-3.834900
28.346678,5.655606,5.394479,-3.693188
28.380173,5.339260,5.509255,-3.954016
28.413239,5.977637,5.073195,-3.805420
28.445992,6.254926,4.750116,-4.374213
28.479320,5.692268,4.778548,-5.049552
28.512860,5.676256,4.359099,-4.887937
28.546492,5.992601,3.981999,-5.012889
28.579466,5.690772,3.549830,-5.108810
28.612850,5.760356,3.478301,-5.178993
28.646231,6.005171,3.126939,-5.645280
28.679551,6.016993,2.833938,-5.657850
28.712871,5.878424,3.157915,-5.679249
28.746202,6.533112,3.205202,-6.491062
28.779585,7.480950,3.242613,-6.796483
28.812846,6.027319,3.935161,-5.590212
28.846163,6.221854,4.307173,-6.528922
28.879533,7.712597,3.453011,-7.428276
28.912887,7.676234,3.659369,-5.084269
28.946278,5.123625,5.235558,-6.597309
28.979650,6.955105,5.202936,-6.506326
29.013038,7.925539,4.590297,-4.717943
29.046306,8.195944,5.320405,-4.897514
29.079550,7.085893,5.761553,-5.687180
29.113066,7.241222,5.507459,-4.892427
29.146214,7.481249,6.235322,-4.714202
29.179555,7.708707,6.832398,-4.192846
29.213317,8.057076,6.552715,-3.555965
29.246166,7.953373,6.320768,-3.756188
29.279497,7.209498,6.067722,-3.151630
29.313113,6.939392,6.668988,-2.998994
29.346315,6.958846,6.551667,-2.669630
29.379605,6.581297,6.807407,-2.228632
29.413089,5.990806,7.481100,-1.806789
29.446280,6.003675,7.309459,-2.346401
29.479674,6.054554,6.118002,-2.520436
29.512885,5.973298,5.913740,-1.576788
29.546426,5.482768,6.304457,-1.685728
29.580112,5.687928,6.879535,-1.205524
29.613105,5.619841,6.140449,-1.966159
29.646260,5.601734,6.522637,-1.521719
29.679632,5.804650,7.032770,-0.729060
29.713025,6.274229,7.917010,-0.068836
29.746619,6.262108,8.132047,-0.999914
29.779981,5.718904,7.714692,-1.430437
29.813189,6.021782,7.880497,-0.881996
29.846960,6.366410,7.763775,-0.396404
29.880327,5.475435,7.720529,-0.634935
29.913531,5.212962,7.896958,-0.791013
29.947043,6.514107,7.255588,-0.601864
29.980366,6.678265,7.301678,-0.065544
30.013245,5.775021,7.734894,-0.733400
30.045664,5.895633,7.747015,-0.804181
30.080244,5.673862,7.492772,-0.914618
30.113709,5.814077,8.011584,-0.500107
30.147101,5.582430,8.447045,0.007931
30.180436,5.176598,8.276901,-0.196182
30.222931,6.430457,10.286606,-0.457758
30.256245,5.747786,11.091835,-1.877720
30.289580,6.161698,11.014170,-2.525524
30.322947,6.533112,10.593075,-2.358672
30.356197,5.374127,10.262064,-1.128009
30.389543,4.174140,8.532491,-2.453396
30.422965,3.280323,7.627600,-3.176172
30.456287,3.390909,7.280129,-4.278142
30.489500,3.944139,8.473981,-3.853306
30.522314,4.630102,7.532727,-3.357389
30.555748,4.224570,7.439349,-3.919747
30.589169,3.728504,7.105795,-3.592778
30.622565,4.035421,7.887380,-3.056756
30.655777,3.453759,6.772840,-3.760677
30.689125,4.139423,6.226493,-4.977274
30.722629,3.990828,6.475799,-5.013338
30.755854,3.654131,6.627985,-4.906194
30.789481,3.564495,6.393944,-4.782888
30.822587,5.004359,5.751078,-5.460770
30.855931,5.225681,5.721598,-4.906044
30.889259,5.012889,5.797317,-4.560070
30.922621,4.903650,5.816322,-4.342339
30.956084,4.742484,5.526015,-4.091986
30.989434,4.313757,5.806895,-4.404291
31.023091,5.097587,5.521974,-5.464511
31.056229,6.182498,5.768436,-4.169501
31.089521,6.042283,5.534095,-3.890417
31.122950,6.473404,4.868184,-4.283230
31.156251,8.432979,5.403158,-3.925434
31.189659,7.730704,4.827481,-5.889946
31.222864,5.734018,5.811683,-4.259736
31.256159,7.804179,5.208921,-3.908075
31.289516,8.228267,5.751527,-4.474324
31.322050,8.722687,5.314420,-4.716147
31.356167,7.206655,5.175701,-3.099554
31.389159,6.968423,5.377719,-3.278527
31.422909,7.680873,5.519281,-4.077172
31.456375,9.772283,5.582879,-4.824638
31.488934,9.228630,6.079245,-3.555965
31.522894,8.501665,6.538649,-3.374748
31.556268,8.661334,6.121444,-3.728055
31.589612,9.368397,6.688740,-1.865599
31.623181,9.454741,7.805226,-1.599833
31.656282,9.546322,6.533112,-2.106823
31.689601,8.041513,5.621188,-1.901363
31.722937,6.523535,5.158492,-1.306682
31.756214,6.642950,5.759308,-0.738338
31.789709,7.790711,5.433236,-0.815704
31.822853,7.651394,5.545019,-1.365941
31.856479,5.660244,5.527960,-1.298153
31.889531,6.140449,5.095043,-0.851468
31.922927,7.197526,4.196437,-1.188165
31.956341,7.041748,4.806681,-0.913421
31.989593,6.723308,5.359462,-1.192355
32.023023,6.862775,5.686582,-0.614434
32.056359,7.796996,5.269078,-0.671598
32.089611,7.641966,5.173755,-0.152935
32.122918,7.643313,6.154365,-0.215037
32.156294,7.624607,5.958932,-0.750310
32.189546,7.081703,5.874832,-0.165206
32.222851,7.074520,6.048867,-0.361388
32.256374,8.101071,6.291738,0.073475
32.289647,7.341932,5.728332,-0.503100
32.323131,6.529221,5.719054,-0.427081
32.356222,7.409271,6.220807,0.102505
32.389996,7.387723,5.293769,-0.206208
32.422994,7.916561,5.759458,-0.284022
32.456275,8.218241,6.616613,0.352409
32.489871,7.755994,7.058059,-1.073090
32.522798,8.276751,7.682519,-0.342084
32.556025,8.064857,7.155626,-0.096370
32.589660,7.849970,6.237268,0.081855
32.622882,8.081018,6.378381,0.052525
32.656423,8.817860,6.950167,0.113579
32.689956,8.866195,6.960791,-0.367822
32.722985,9.209027,7.439798,-0.299884
32.756288,8.802297,7.212042,0.723224
32.789846,9.219652,8.086406,-0.357347
32.823044,10.097457,8.098227,-0.029629
32.855942,9.290732,10.587687,-0.244666
32.889245,6.522188,7.511028,-0.881547
32.923011,6.089420,6.084183,-2.111462
32.956460,7.815552,6.279018,-2.819572
32.989856,7.666208,6.676021,-1.268074
33.023373,7.155028,6.365362,-0.317991
33.056556,6.530418,5.596048,-0.725469
33.089473,6.250137,5.653810,-0.506092
33.123222,7.080506,4.609601,-3.761126
33.156594,6.310144,4.937469,-1.934734
33.189848,6.665845,4.833617,-2.031104
33.223104,6.612871,4.666166,-2.655115
33.256444,6.396937,4.629803,-2.288340
33.289497,6.744857,4.385287,-3.013510
33.323335,8.705778,3.670592,-3.079053
33.356653,8.071441,3.481892,-3.236328
33.389856,7.108339,3.527683,-3.459895
33.423151,6.839880,3.851959,-3.830560
33.456718,7.096667,4.140471,-3.936208
33.489885,7.600066,4.340244,-3.643357
33.523392,8.196692,3.403479,-3.957308
33.556553,7.521653,3.233186,-4.692055
33.589784,7.437105,3.674782,-4.478514
33.623312,7.723222,3.206549,-5.039825
33.656818,7.479154,2.641348,-4.489887
33.690122,7.072126,3.059450,-4.241480
33.723640,7.754946,3.114968,-5.175850
33.756631,7.264267,3.186647,-4.434818
33.789955,7.230747,3.505985,-5.569262
33.823224,6.834044,3.507032,-4.258539
33.856715,8.653103,3.693786,-5.760655
33.890609,8.793319,3.327311,-5.454485
33.923270,8.305333,3.378938,-4.642972
33.956539,8.283336,4.280686,-4.984756
33.990079,9.439028,4.767475,-5.391037
34.024180,10.238421,4.596283,-3.997113
34.057033,8.799903,5.665183,-4.535827
34.090036,8.471287,6.550171,-3.572725
34.123312,9.116697,6.786906,-2.907562
34.156791,9.567272,5.696757,-1.976484
34.190052,7.716787,6.463677,-2.436786
34.224030,7.273695,6.386462,-1.449292
34.256614,7.075268,6.442129,-0.833362
34.289968,6.055003,7.340286,-0.910278
34.323457,5.749132,6.670185,-1.324190
34.356829,6.748747,5.852087,-1.138184
34.390223,6.124587,5.885756,-0.925691
34.423440,5.175551,6.113663,-1.061268
34.456918,5.898326,6.057247,-0.547394
34.490213,6.022380,6.169479,-0.245863
34.523531,6.412799,6.666444,0.188700
34.556994,5.733570,7.286564,-0.420497
34.590124,5.499079,7.049829,-0.676536
34.623445,5.644233,7.060304,-0.509983
34.656758,5.709477,8.144467,0.472722
34.690199,5.919426,7.852663,-0.208453
34.723504,5.848046,7.394906,-0.622515
34.756899,5.167470,8.079223,0.200073
34.790145,5.414381,7.732350,0.107294
34.823769,5.729978,8.245177,0.003591
34.856786,5.932295,8.274806,0.153983
34.890015,5.603829,8.011434,-0.230600
34.923758,5.396873,7.760483,-0.059708
34.957034,5.790284,7.712897,0.102655
34.990573,6.232329,7.595128,-0.170743
35.023853,5.603829,7.857601,-0.590192
35.056653,5.665781,8.414124,-0.556073
35.090153,5.354374,8.597736,-0.160717
35.123696,5.428298,8.552394,0.504147
35.156958,5.941124,8.970496,0.629099
35.190369,6.519943,8.744685,0.171790
35.223553,5.996642,8.863352,0.479157
35.256837,6.236519,9.938985,0.271003
35.290268,6.418036,10.056904,0.240327
35.323577,6.800823,10.486080,0.896511
35.357379,6.277372,11.145257,0.822737
35.390391,5.845054,11.326325,-0.596626
35.423663,5.306788,9.659303,-1.018470
35.456912,4.209157,8.823846,-0.848027
35.490322,4.338748,8.533988,-1.276155
35.523929,5.214159,8.112443,-1.775364
35.557305,4.674995,8.223927,-0.314250
35.590473,4.519217,8.285580,0.202168
35.623655,5.271023,7.976717,-1.047950
35.657075,4.718242,7.684614,-1.862606
35.690396,4.601820,7.111482,-2.534054
35.723671,4.757149,7.335647,-2.177155
35.757561,4.706121,6.949718,-1.812625
35.790476,4.542561,6.347405,-1.680490
35.823654,5.031445,6.180403,-1.897323
35.857139,6.012205,6.123539,-2.505472
35.890247,6.478941,5.696907,-3.220017
35.923754,5.990058,5.486659,-3.708003
35.957261,5.835626,5.837871,-3.212984
35.990312,6.206591,5.573003,-3.441937
36.024087,6.375987,5.304693,-4.159924
36.057273,6.039589,5.333873,-3.940248
36.090424,6.010708,5.487407,-4.014920
36.123679,6.516052,5.227178,-4.204518
36.157131,6.643698,4.934775,-4.009982
36.190447,6.449312,5.041471,-4.198532
36.224005,6.762664,4.863396,-4.213197
36.257077,7.130786,4.550492,-4.214544
36.290402,7.502199,5.131556,-4.092585
36.323824,6.815189,5.002115,-4.284876
36.357149,6.934903,5.385350,-4.372417
36.390559,7.690001,5.311576,-4.041407
36.423818,6.381673,6.204646,-4.657786
36.457369,6.133415,6.039889,-4.462652
36.490457,8.590852,6.474901,-3.183504
36.523852,8.602524,6.852749,-4.109644
36.557319,7.158170,7.297488,-3.838192
36.590627,8.102866,7.538563,-3.459895
36.624013,8.074584,8.322542,-2.336974
36.657224,7.397449,8.434924,-2.377976
36.690554,6.778227,8.024004,-1.985612
36.723834,6.642052,7.577320,-2.062978
36.757114,6.990121,7.692246,-1.216747
36.790512,5.827695,8.008142,-1.182628
36.824235,5.205180,7.825578,-1.612702
36.857265,5.608767,7.912072,-1.068900
36.889355,6.625142,7.707210,-0.577622
36.923792,5.531103,7.697633,-0.524050
36.957304,5.117190,7.202914,-0.830818
36.990650,5.084119,6.194769,-0.586451
37.024220,5.114347,6.280215,-0.465240
37.057330,4.744729,6.566183,-0.127496
37.090330,4.676941,6.964981,-0.122857
37.124013,5.234660,7.262471,-0.657082
37.157527,5.967761,7.184956,-0.174184
37.189534,6.056499,7.980009,0.145303
37.222872,5.156546,8.817561,0.128843
37.256209,4.707169,8.394969,0.046689
37.289539,5.074991,8.492237,0.277588
37.322984,4.866239,8.942812,0.651994
37.356205,4.242378,8.512439,0.230151
37.389189,4.251206,8.230661,0.283573
37.422714,4.938816,8.176491,0.901299
37.456221,5.066162,8.354865,0.475715
37.489673,5.156247,8.022209,0.139318
37.522907,4.801893,8.066653,0.131985
37.555401,5.224933,8.670612,0.462696
37.589535,5.335370,8.595491,0.360340
37.622959,5.165375,8.708920,0.430223
37.656215,4.912329,8.847789,1.460964
37.689556,4.462353,9.189873,1.339604
37.722931,4.612744,9.147524,0.720830
37.756218,4.531637,9.242098,0.387575
37.789580,4.323035,9.877482,0.843388
37.822885,5.377120,10.096859,1.538479
37.856290,6.659111,9.892746,0.858053
37.889018,6.134762,10.068726,0.498311
37.922931,5.610114,10.458695,0.454017
37.956212,5.210268,11.000552,0.924045
37.989606,4.298344,9.989415,0.047437
38.022864,3.734938,9.081830,-0.486489
38.056223,4.608554,8.379556,-1.145068
38.089537,5.565820,7.947986,-1.818311
38.122898,5.344348,8.406193,-1.519774
38.156267,4.878959,9.083327,-0.898157
38.189568,5.538884,8.418613,-1.850934
38.222962,5.852236,7.527788,-2.511308
38.256211,4.271408,7.786072,-1.960323
38.288918,4.996877,6.934604,-1.631407
38.322868,5.645280,5.980181,-2.305250
38.356050,5.111204,5.788189,-2.097994
38.388850,5.019922,6.434048,-1.563918
38.422871,5.556093,5.885457,-2.170122
38.456214,6.230384,5.755567,-2.687288
38.489564,6.267047,6.041834,-2.666787
38.522416,6.460984,6.081938,-3.113022
38.555537,6.513957,5.501473,-3.599362
38.589526,6.951065,5.408844,-3.263264
38.622497,6.685897,5.374726,-3.412308
38.655485,6.922632,5.011393,-3.269249
38.689578,6.871754,4.884795,-3.523194
38.722870,6.718819,4.618131,-3.454507
38.756241,6.714180,4.397857,-3.621060
38.789644,7.312901,4.673050,-3.039398
38.822871,6.948371,4.706271,-3.430864
38.856294,7.124052,4.545853,-3.823527
38.889593,8.003354,5.274914,-4.052481
38.922890,8.187714,5.071848,-3.958056
38.956272,8.120823,5.421564,-4.144511
38.989611,7.675636,4.956474,-3.735986
39.022316,7.395504,5.636002,-4.371370
39.056256,7.736690,5.716211,-2.833489
39.088902,7.726514,5.922868,-3.967783
39.123132,8.323590,6.044677,-3.696330
39.156194,8.161227,6.815638,-2.983431
39.189538,7.696586,6.923530,-2.885565
39.222865,7.123004,8.133693,-2.259908
39.256270,8.443454,8.355613,-1.726281
39.289604,8.721939,8.578731,-2.139146
39.322887,6.903328,7.184807,-2.131065
39.356199,6.259564,6.968722,-1.751571
39.389578,6.475350,7.578218,-1.350528
39.422883,6.294431,7.875409,-0.855808
39.456204,5.624929,7.125847,-0.761383
39.489536,5.503568,7.195731,-0.547843
39.522209,5.370087,7.135724,-1.024755
39.556202,5.198895,6.955255,-0.858502
39.589537,5.046110,7.095171,-0.856257
39.622885,5.328785,7.132881,-0.459105
39.655721,4.875517,7.347169,-0.387875
39.689591,4.802341,7.801036,-0.281029
39.722884,4.749817,7.877504,-0.217132
39.756003,5.180340,7.757041,0.141562
39.789559,5.240047,7.787868,0.082753
39.822887,4.896317,8.079223,-0.106396
39.856203,4.877313,7.933022,0.041002
39.889540,4.949141,8.391677,0.845932
39.922891,4.819401,8.380155,0.561011
39.956197,4.971438,8.161526,-0.163410
39.989537,4.907690,8.326732,0.215486
40.022884,4.817904,8.376264,0.125999
40.056196,4.831971,8.441209,0.183313
40.089531,5.149962,8.391827,0.298089
40.122913,5.135297,8.451834,0.678631
40.155623,4.970989,8.753065,0.779939
40.189605,5.316515,8.143868,0.361537
40.222705,4.949590,8.378808,0.788169
40.256182,4.496022,8.314761,0.435012
40.288716,5.067958,8.761894,1.103916
40.322878,5.192910,8.345886,0.475715
40.356188,4.899759,8.809031,0.739386
40.389538,4.798451,9.077341,0.082453
40.422893,5.331329,9.814333,0.446535
40.456207,5.236306,10.032961,0.969237
40.489538,5.373678,10.675977,1.696053
40.522934,4.874020,11.079713,0.909380
40.556210,4.749218,10.944735,0.281029
40.589537,5.179741,11.408629,-0.022147
40.622957,5.450744,10.327608,0.071080
40.655520,3.822330,8.950893,0.093976
40.689538,3.605348,8.667469,0.123605
40.722872,4.343237,8.219887,-0.186754
40.756205,5.357816,7.920900,-1.450040
40.789537,4.706869,9.160992,-0.733101
40.822882,4.702081,9.169372,0.330561
40.856210,5.518832,8.566759,-0.677134
40.889537,4.930137,7.548888,-1.678844
40.922880,4.371220,7.342830,-2.053101
40.956233,4.084654,7.536468,-1.416071
40.989537,5.114347,6.772989,-1.585168
41.022867,5.734318,6.688591,-1.668220
41.056242,6.171574,6.506775,-2.663196
41.089536,6.237268,6.451856,-2.575654
41.122885,6.991917,6.316429,-2.494698
41.156203,6.663451,5.851339,-2.844862
41.189576,6.046024,5.760206,-3.233036
41.222877,5.787591,5.439371,-3.930522
41.256217,6.406514,5.191114,-3.570181
41.289538,6.040188,5.424706,-3.833403
41.322876,5.931098,5.353177,-3.968681
41.356202,6.179206,5.220743,-4.040808
41.389342,6.274529,4.908887,-3.860339
41.422878,6.319721,4.751762,-4.222924
41.456262,6.475649,4.447688,-4.471780
41.489518,6.745904,4.328722,-4.305078
41.522875,6.846015,4.722881,-4.124459
41.556260,6.205094,4.707169,-3.920496
41.589538,7.017057,4.979519,-4.886141
41.622907,7.887231,5.328785,-5.003462
41.656216,8.484605,5.057632,-4.451279
41.689536,7.102952,5.506112,-4.991640
41.722912,7.253343,5.668774,-4.504851
41.756241,7.803580,6.154515,-4.943305
41.789649,8.445998,6.454699,-3.773397
41.822472,8.498073,6.714329,-4.288019
41.855964,7.135125,6.763712,-3.206848
41.888994,7.416604,8.050342,-2.858180
41.922892,8.740944,7.712597,-2.813736
41.956210,8.648764,7.888278,-2.707789
41.989556,6.471459,7.424535,-1.753516
42.022872,5.752425,7.719631,-1.172303
42.055480,6.405167,8.032235,-1.149258
42.089570,6.113363,8.662681,-1.223481
42.122927,5.823655,8.429836,-1.165270
42.155655,5.703342,8.547156,-0.601565
42.189595,5.235707,7.810314,-0.635534
42.222436,5.091152,6.617810,-0.765424
42.256199,5.062122,5.723992,-1.321198
42.289606,4.897365,5.644382,-0.662320
42.322900,4.055922,6.271835,0.059857
42.356017,4.360147,6.863823,-0.047287
42.389531,5.152506,7.138118,-1.130253
42.422889,5.154152,7.644660,-0.385630
42.456272,5.177796,8.913183,0.606653
42.489193,5.482319,8.699493,-0.054470
42.522928,5.156397,8.050491,-0.292552
42.556141,5.217451,8.205821,0.295395
42.589537,5.431889,8.217942,-0.572235
42.622869,5.525117,7.821238,-0.900701
42.656246,5.848795,8.110797,-0.732053
42.689615,5.705137,8.062163,0.230600
42.722982,5.485761,8.035228,-0.188400
42.756269,5.425754,8.062912,0.143059
42.788877,5.405253,8.245027,0.460302
42.822974,5.315766,8.453330,0.085296
42.856297,5.694962,8.152099,-0.204412
42.889656,6.208387,8.623324,1.136688
42.922183,5.845502,8.637391,0.653940
42.956237,5.629418,9.113555,-0.759737
42.989662,6.449012,9.490954,-0.000449
43.022977,6.908865,9.695516,0.639125
43.056226,6.196415,9.699108,-0.384433
43.089549,6.456794,10.297530,-1.016674
43.122906,6.041984,10.186046,-0.882744
43.155613,5.060326,9.514747,-0.831865
43.189543,4.749517,8.740046,-0.410920
43.222908,4.771216,7.948584,-1.331523
43.256224,5.189468,7.900848,-2.086771
43.289520,4.906194,8.475777,-1.278549
43.322904,5.511499,7.872117,-1.230514
43.356184,6.106629,7.391913,-2.666787
43.389156,5.609964,7.681023,-3.299028
43.422100,5.041770,7.550684,-2.414639
43.455683,4.969942,6.720016,-2.718563
43.489547,5.258004,6.286949,-4.232501
43.522323,5.487407,5.916583,-4.183568
43.556204,5.442813,5.593354,-3.283017
43.589549,5.687928,5.474238,-3.213133
43.622878,6.729743,5.507010,-5.050599
43.655679,5.998587,5.207575,-4.400400
43.689541,4.985504,5.590810,-3.953567
43.722867,5.337614,5.190815,-5.532150
43.756164,5.258752,4.995231,-5.835177
43.789515,5.179591,4.806083,-4.930286
43.822872,5.629867,4.505151,-5.642587
43.856200,5.946960,3.714587,-5.987663
43.889349,5.350035,3.662212,-5.688826
43.922048,6.083435,3.794945,-5.212363
43.955251,7.039803,3.398092,-5.784598
43.989626,6.441830,3.738380,-5.695710
44.022876,5.824552,3.344670,-6.951813
44.056206,6.485675,3.739128,-6.767602
44.089553,6.955703,3.788361,-5.948756
44.122878,6.352343,4.044849,-6.079544
44.156203,6.845716,4.869681,-6.986680
44.189611,6.036896,5.586022,-5.886205
44.222911,7.444587,5.948906,-6.169928
44.256203,8.010986,6.027319,-5.217002
44.289542,7.937810,6.584140,-5.548012
44.322994,6.658363,6.390951,-4.826284
44.356204,7.075418,6.806958,-4.896317
44.389538,7.717985,7.346421,-2.949612
44.422876,8.001408,7.638674,-2.738316
44.456195,6.982938,7.266811,-3.555816
44.489542,5.222389,7.134227,-3.638718
44.522929,4.775406,7.223714,-3.480695
44.556206,5.999186,6.944031,-2.101436
44.589544,6.109622,6.968722,-2.485569
44.622736,6.276324,6.985782,-2.750437
44.656190,6.444374,6.705800,-2.314378
44.689592,6.323612,6.503632,-1.942216
44.722067,5.084418,6.597159,-2.124182
44.755788,4.575333,6.520392,-2.591367
44.789572,5.789985,7.764823,-2.037538
44.822300,6.134014,7.521503,-1.239792
44.856226,4.964854,7.398198,-1.538329
44.889573,5.185278,7.421093,-1.761597
44.922894,5.678800,7.641816,-1.798409
44.956282,5.842958,7.407326,-1.674505
44.989559,5.562378,7.278783,-1.646970
45.022878,5.764845,6.768799,-1.588759
45.055589,5.621637,7.304372,-1.717901
45.089502,5.572703,7.689253,-1.685129
45.122893,5.929452,7.593033,-1.715058
45.156253,5.841612,7.472271,-0.589294
45.188623,5.159689,8.102866,-0.347471
45.222876,5.785945,8.183374,-0.546346
45.256219,5.343301,7.892768,-1.151502
45.289607,5.408695,8.248020,-1.982021
45.322028,5.665332,8.291865,-1.887297
45.355971,6.253130,8.488945,-0.802984
45.389537,6.281562,9.057888,-0.287913
45.422878,6.877141,8.871432,-0.304823
45.456214,6.370151,9.585978,-0.572534
45.489564,7.029926,9.516693,-0.977767
45.522884,6.812944,9.215462,-0.063449
45.556209,6.062784,9.657806,0.347621
45.589533,6.224249,9.882869,-0.886036
45.622861,6.160351,9.599745,-0.875711
45.656193,5.262494,8.917373,-0.204263
45.689141,4.610350,8.543415,0.085895
45.722874,5.086813,8.294110,-0.868228
45.756206,5.604128,7.888129,-1.940869
45.789611,5.248427,8.466199,-1.038672
45.822939,4.737396,9.134205,-0.526145
45.856200,5.952796,8.419211,-1.542669
45.889624,5.752275,7.327865,-3.234083
45.922929,4.757149,7.098912,-2.726644
45.955490,4.208409,7.644809,-1.762195
45.989662,4.537922,6.789899,-1.974539
46.022875,5.284192,5.772626,-2.654965
46.056208,5.151309,5.835476,-3.212984
46.089541,5.477381,6.252232,-2.930159
46.122895,6.419084,5.871540,-2.439779
46.156205,6.882977,6.010858,-3.079053
46.189542,6.731089,5.718007,-3.433408
46.222891,5.783999,5.508058,-3.575718
46.256183,5.751676,5.247529,-4.485098
46.289535,6.176812,4.874469,-4.567252
46.322886,6.414744,4.707019,-3.872610
46.356209,7.053121,4.276047,-4.413270
46.389607,7.326369,4.246717,-4.412971
46.422875,7.231645,4.086749,-3.927080
46.456203,6.768201,3.829812,-4.326028
46.489538,6.605240,3.780130,-4.914723
46.522880,6.736626,4.044849,-4.306724
46.555665,7.350013,4.420602,-4.679934
46.589210,7.734146,4.218734,-5.227327
46.622929,7.978363,4.245819,-5.150710
46.656255,8.060368,4.173093,-4.974880
46.689534,7.352257,4.406536,-4.448286
46.722890,8.557182,4.886141,-4.553485
46.756221,6.578304,5.160287,-5.349586
46.789529,8.947750,5.655905,-3.924237
46.822928,8.582023,6.575012,-4.386933
46.856220,8.077427,6.180852,-4.235494
46.889805,7.978812,6.768799,-3.568236
46.922888,7.518960,7.096218,-4.179528
46.956215,7.089484,7.695987,-2.609025
46.989146,8.775811,8.759948,-2.221300
47.022866,8.145814,8.056178,-2.473448
47.056218,5.953994,6.708942,-2.169523
47.088622,4.603915,7.583156,-1.474881
47.122865,6.357132,7.490078,-1.604921
47.156197,6.546729,7.319635,-0.733250
47.189600,5.568214,6.742462,-0.612339
47.222886,4.763434,6.781968,-0.643165
47.256202,4.474174,7.183460,-0.579717
47.289571,4.540017,7.176128,-0.801188
47.322919,4.323035,7.350312,-0.554128
47.356201,4.789173,7.747315,0.498610
47.389539,4.700734,7.681921,0.354803
47.422869,4.485847,7.730255,-0.502950
47.456208,4.718691,8.419361,0.112083
47.489586,5.090703,8.255951,0.238830
47.522869,4.635340,8.426394,0.547992
47.556215,4.995381,8.733911,-0.068686
47.589548,5.262942,8.179783,0.592586
47.622898,4.283529,8.857516,0.299436
47.656219,4.400101,8.150303,0.729958
47.689599,4.825386,8.483259,0.670251
47.722955,4.997775,8.564515,1.014579
47.756198,4.996877,8.214051,-0.046689
47.789568,4.631300,8.307428,0.426931
47.822880,4.727520,8.483109,0.889478
47.856206,5.169715,8.307279,1.060071
47.889562,5.269826,8.620032,0.985848
47.922631,4.921607,9.077640,1.143422
47.956187,5.171810,9.365703,0.738338
47.989570,5.346144,8.947601,1.214502
48.022894,4.704774,9.494097,0.758091
48.056206,5.044464,9.901874,1.160631
48.089564,5.136793,9.721255,1.306682
48.122935,5.048205,9.380368,0.701227
48.156211,5.325942,10.123645,0.211745
48.189564,5.438773,10.809309,0.702274
48.222917,5.185128,10.255929,0.078862
48.256029,4.240283,9.846955,-0.062401
48.289538,3.929624,10.805418,0.449527
48.322888,4.372717,9.571761,-0.163859
48.356201,5.161036,8.437169,-1.204326
48.388995,5.428448,8.207616,-1.490444
48.422908,4.953032,8.707573,-0.371863
48.456208,5.231218,8.284982,-0.372012
48.489573,5.777415,7.762878,-2.390845
48.522901,5.017079,8.465451,-2.077792
48.556208,4.362242,8.515582,-1.149258
48.589580,5.206976,7.589142,-1.428791
48.622885,6.443027,6.631726,-2.211872
48.656205,5.061224,6.398433,-2.698511
48.689610,4.148701,6.286500,-2.188827
48.722886,4.998823,5.536939,-2.131215
48.756282,5.821560,5.392533,-3.208494
48.788688,5.631962,5.829940,-3.432510
48.822902,5.669522,5.504317,-2.923425
48.856286,6.013701,6.131171,-3.594573
48.889261,5.927058,5.382058,-4.253601
48.922921,6.857837,5.145173,-4.741287
48.956287,6.894499,4.904548,-4.106801
48.989542,6.152121,4.531637,-3.800482
49.022881,6.136408,4.139872,-4.822094
49.056207,6.944181,4.287420,-4.793064
49.089571,7.375003,4.319893,-4.366880
49.122862,7.309010,4.390225,-4.457564
49.156205,7.091130,4.176535,-4.791418
49.189524,7.501601,4.377655,-4.550193
49.222924,6.744258,4.364337,-4.272156
49.256189,6.976953,4.141967,-4.991939
49.289545,8.335561,4.019260,-4.936870
49.322593,8.129952,4.330068,-4.531787
49.356214,7.047135,4.877911,-4.710910
49.389539,8.207616,5.250672,-4.072084
49.422889,8.130700,6.114860,-4.145559
49.456223,7.999014,5.984670,-3.915707
49.489535,7.484093,6.230683,-4.225019
49.522867,7.478855,6.879834,-3.643058
49.556206,7.915364,8.012931,-2.993906
49.589469,7.464938,7.795649,-3.018149
49.622921,7.230149,7.836053,-2.481679
49.656206,7.461497,7.608895,-2.944524
49.689610,6.357281,7.490976,-1.545961
49.722903,6.094059,7.664712,-1.685728
49.756204,6.801721,7.834556,-1.329129
49.789646,6.636066,8.100771,-1.207469
49.822907,6.052159,8.277649,-0.987943
49.855672,5.821410,8.244578,-0.755547
49.889532,5.706634,8.435971,-0.871072
49.922894,5.089057,6.995808,-1.138035
49.956204,4.930137,6.827609,-0.337445
49.989222,3.930073,7.379343,-0.011971
50.022982,3.582751,7.024689,-0.165954
50.056225,4.064602,6.696372,-0.714695
50.089317,4.696544,6.882827,0.095921
50.122917,4.610499,7.713346,0.408675
50.156203,4.587903,8.337656,0.306768
50.188863,4.230107,8.460214,0.573282
50.222935,4.682477,8.730469,0.076617
50.256206,4.690259,9.523427,0.323229
50.289534,3.536063,9.444565,-0.082753
50.322899,4.225019,8.641132,0.032473
50.356248,4.767175,8.720592,0.275792
50.389564,4.264674,8.383596,0.165954
50.422888,4.667812,8.497924,0.463743
50.455318,4.925947,8.637391,0.243918
50.489523,4.847085,8.851530,0.323079
50.522918,4.469386,8.873378,0.360340
50.556020,4.347128,8.856019,0.685215
50.589154,4.840051,9.249879,1.229616
50.622619,5.452989,8.750371,0.750908
50.655599,4.986552,8.313414,0.597674
50.689545,4.171596,8.903755,1.376266
50.722874,4.193744,9.553056,0.923746
50.756179,5.535891,9.722302,0.322630
50.788928,5.186026,10.801677,0.509834
50.822859,4.888236,11.357151,0.800440
50.856200,4.742784,11.500060,0.255590
50.889526,4.832420,10.773394,-0.087840
50.922880,4.205266,10.406919,0.142161
50.956240,3.289601,10.035954,0.153085
50.989520,3.273888,9.173113,-0.395955
51.022900,4.163516,8.706526,-1.179186
51.056246,4.754306,9.066417,-0.889478
51.089555,4.828230,9.155305,-0.651396
51.122866,4.866838,8.398112,-1.177989
51.155418,4.901555,8.206569,-1.855872
51.189551,4.769869,8.006347,-2.447410
51.222903,4.093483,8.016373,-2.016888
51.256221,4.112039,8.096581,-1.128308
51.288909,5.508656,6.816087,-1.536384
51.322900,6.075953,6.044827,-2.467463
51.356169,5.644382,6.596261,-3.009170
51.389591,5.014984,6.298921,-2.477040
51.422895,5.914937,5.806296,-2.864016
51.456204,5.934540,5.591259,-3.499101
51.489654,5.716660,5.745840,-3.122749
51.522886,5.890246,5.908801,-3.595022
51.556204,5.743147,5.568663,-4.189254
51.589553,5.691819,5.223586,-4.572340
51.622919,6.659859,5.480074,-4.030333
51.655208,7.367970,4.905894,-4.898712
51.689615,6.916946,4.399952,-5.048354
51.722950,6.422975,4.120867,-4.520115
51.756214,6.370151,4.177582,-4.746974
51.789553,6.322115,3.717280,-4.635938
51.822885,6.510965,3.591431,-4.692504
51.856223,6.077299,4.201525,-4.255995
51.889546,6.546430,4.864743,-6.084632
51.922879,8.788979,5.744793,-5.666380
51.956242,7.886333,6.590874,-5.517186
51.988895,6.339025,6.175764,-5.761253
52.022875,7.388321,6.801571,-5.736413
52.055471,8.818309,7.194085,-3.263114
52.089588,8.347981,6.346806,-3.826969
52.122882,6.806958,6.400977,-4.955277
52.155259,7.333702,7.025587,-2.556201
52.189540,8.222431,7.058209,-2.795181
52.222869,7.551582,7.279232,-2.895591
52.256197,6.539846,6.683353,-2.138697
52.289541,5.896980,6.941787,-0.741182
52.321926,4.692952,7.335797,-1.837915
52.356275,5.410490,7.367222,-0.666210
52.389527,6.105732,7.267859,-0.795352
52.422903,5.666230,7.438302,-1.080123
52.456208,5.787441,7.875259,-0.715892
52.489563,6.183845,6.847811,-0.249754
52.522874,5.788488,7.291951,-0.455064
52.556203,4.747422,7.747315,-0.848924
52.589571,5.317861,7.933770,-0.433516
52.622952,6.039440,7.853112,0.057313
52.656220,5.358265,7.492772,-0.202916
52.689577,4.603466,7.592434,-0.482898
52.722919,4.924151,7.501002,-0.358395
52.755754,4.621722,7.425133,0.837851
52.789544,4.597780,7.585850,1.059023
52.822791,4.708815,7.857302,0.204263
52.856211,4.869681,8.135040,-0.288063
52.889577,5.744194,8.357708,0.251101
52.922897,5.650967,8.643227,-0.158622
52.956196,5.567466,8.693657,-0.371264
52.989550,5.559684,8.081767,-0.279234
53.022893,5.449098,8.211657,0.294946
53.056218,4.751313,8.258345,0.274445
53.089543,4.991640,8.182776,0.211595
53.122663,5.015283,8.218540,0.344927
53.155691,5.447153,8.617788,0.037560
53.188942,6.232928,8.677944,0.641669
53.222873,6.393944,8.907945,0.181517
53.256200,5.681643,9.077042,0.258733
53.289557,5.587668,9.069709,0.797148
53.322549,5.588565,9.054446,1.113344
53.356202,5.939179,9.199300,-0.442045
53.389539,6.298172,9.258708,-0.184360
53.422892,6.389006,10.231238,0.421095
53.455521,5.807792,10.334043,-0.514173
53.489571,5.400315,9.421221,-0.526444
53.522860,5.224335,9.828998,0.589444
53.556200,4.730363,9.048460,0.030826
53.589558,4.282033,9.057888,-0.922998
53.622945,6.040786,8.297402,-2.794881
53.656267,6.925775,8.345886,-2.150070
53.689558,5.537537,8.804542,0.569092
53.722874,5.372331,7.670847,0.441896
53.756207,6.601499,5.996193,-3.084291
53.789527,4.474773,6.476846,-3.130979
53.822422,4.590148,6.316429,-2.180747
53.856218,5.960877,6.399032,-2.170870
53.889544,7.335497,5.535293,-3.218072
53.922159,6.445271,5.403158,-3.778784
53.956206,6.723607,4.913377,-3.785667
53.989561,7.460449,4.624416,-3.236777
54.022863,6.607035,4.298643,-3.619863
54.056264,6.014000,3.872161,-4.169202
54.089544,6.249239,4.101264,-4.093782
54.122371,6.038392,3.635875,-4.148102
54.156204,5.877526,3.800332,-4.562464
54.189557,6.905274,3.322373,-4.749517
54.222903,7.238828,3.225554,-4.554383
54.256216,7.008228,3.288104,-5.013039
54.289545,7.235386,3.090576,-4.972785
54.322879,7.254989,3.159561,-4.966949
54.356224,7.138118,3.158963,-5.517186
54.389540,7.722624,3.939500,-5.352279
54.422053,6.323462,3.820983,-5.007951
54.456203,6.286351,4.448137,-6.114860
54.489670,8.886995,3.926781,-6.134164
54.522855,7.375901,4.371220,-5.036982
54.556240,7.524347,4.924899,-5.536490
54.588820,8.166913,5.043566,-5.041621
54.622895,8.893879,5.372631,-4.777650
54.656218,7.281775,5.744643,-4.706121
54.689618,6.924129,6.020734,-4.356106
54.722871,7.732650,6.662254,-2.724848
54.755472,8.458717,6.567679,-4.152592
54.789549,7.626553,6.776431,-2.810893
54.822961,7.078710,7.200669,-2.847855
54.856201,6.869509,7.749709,-2.682499
54.889540,6.645943,7.914915,-2.591367
54.921956,5.973298,7.846378,-1.860660
54.955556,5.782503,7.731901,-1.438218
54.989570,5.512098,7.253942,-1.461413
55.022878,5.363802,7.026784,-1.377613
55.056248,5.218947,6.980843,-1.264633
55.089612,5.278805,6.996855,-0.761383
55.122875,4.947645,6.523385,-1.009940
55.156204,4.964554,7.461048,-1.062764
55.189592,5.026357,7.508784,-1.575142
55.222987,4.807130,7.881095,-0.784428
55.256209,5.562677,8.242782,-0.317393
55.289552,6.020884,8.168709,-0.236585
55.322884,5.419918,8.242483,-0.482748
55.356210,4.665418,8.087303,-0.621018
55.389536,4.447239,7.734296,-1.010389
55.422692,4.743981,8.263284,-0.033819
55.456240,4.040360,7.961454,-0.375305
55.489595,4.579972,8.122021,-1.084163
55.522306,6.284555,8.665823,-0.574030
55.556194,6.541043,8.659388,-0.329813
55.589570,5.002264,8.170655,-0.965047
55.622911,4.771066,8.266576,-0.962803
55.655599,5.237204,7.879599,-0.647206
55.689592,5.357367,7.438751,-1.026700
55.722885,5.299455,7.823633,-1.277352
55.755681,6.056649,8.678243,0.137223
55.789594,6.286799,8.456772,0.282376
55.822908,4.922954,9.287889,-0.139916
55.856206,5.611012,10.539951,-0.639873
55.889542,5.927956,10.641409,-0.466886
55.922938,5.634656,10.591578,-1.185022
55.956235,6.112765,10.880539,0.306319
55.989560,5.769633,11.063851,0.019454
56.022863,4.548397,10.661611,-0.994228
56.056228,3.904783,9.199899,-1.078926
56.089508,4.236392,8.131897,-2.047714
56.122894,5.024561,7.665011,-3.722219
56.156236,4.936721,8.421306,-2.504574
56.188953,3.840736,8.742590,0.424387
56.222881,5.262494,8.031786,-0.440549
56.256213,6.657764,7.674439,-3.550429
56.289565,4.371220,7.884537,-4.103060
56.322879,4.163067,7.523598,-3.324019
56.356289,4.645216,6.747849,-3.764268
56.389578,4.475372,6.521290,-4.618580
56.422904,4.793961,6.123689,-4.039911
56.456361,5.377270,5.692567,-4.212748
56.489536,6.241009,5.299755,-4.453224
56.522885,6.114560,5.295265,-4.659881
56.556298,4.901106,5.300952,-4.192995
56.589555,4.042155,5.060476,-4.487792
56.622888,4.835562,4.668561,-4.782140
56.655361,6.027768,4.906194,-4.489737
56.689554,5.615052,4.882400,-4.776154
56.722968,5.317712,4.536725,-5.157594
56.756285,5.228375,4.826584,-5.349586
56.789562,6.295778,4.261382,-5.648423
56.822883,7.448178,4.202423,-5.785645
56.855702,6.769847,4.089143,-5.482319
56.889517,4.746525,4.470284,-5.374426
56.922877,5.602632,5.212812,-5.597544
56.956220,6.824317,5.259650,-6.327502
56.989539,6.881481,4.993136,-6.000832
57.022877,6.209135,5.169565,-5.690023
57.056297,6.698767,5.227627,-5.572105
57.089580,6.337080,5.122877,-5.698703
57.122881,5.949055,5.546965,-5.871091
57.156202,6.816835,6.149427,-5.450146
57.189358,7.081553,6.387808,-5.050150
57.222901,7.085893,6.979796,-4.322586
57.256195,6.820875,6.944031,-4.080763
57.289534,7.699130,7.830366,-3.495959
57.322871,8.743637,8.350974,-3.513616
57.356224,8.446746,8.127707,-3.337936
57.389545,6.359676,7.709006,-2.536897
57.422877,4.996728,7.865832,-1.126961
57.456239,5.102974,8.162574,-1.021463
57.489620,5.970454,7.728909,-2.050857
57.522878,5.763797,7.113577,-2.069113
57.556203,5.350035,7.356148,-1.478023
57.589544,5.308883,7.449226,-1.090747
57.622871,5.578240,6.987727,-1.692611
57.656241,5.297510,6.644596,-1.701440
57.689537,4.379600,7.536468,0.097567
57.722872,4.770916,7.646755,-0.269956
57.756231,5.219845,7.738486,-0.830069
57.789583,4.608404,8.089698,-0.595429
57.822864,4.180425,8.399758,-0.694643
57.856219,4.442450,7.941701,-0.546795
57.889599,4.411175,7.947537,0.062102
57.922887,4.765080,7.779189,-0.379345
57.955645,4.915322,8.007693,-0.606653
57.989594,5.073195,8.266426,-0.952477
58.022913,5.403008,8.364891,-0.103703
58.056234,5.333125,8.349478,-0.203664
58.089548,5.268928,8.392874,-0.740433
58.122848,5.214308,8.563018,-0.533477
58.156197,5.290626,8.658341,-0.403886
58.189541,4.673349,8.610904,-0.666360
58.222870,4.861151,8.810977,-0.180619
58.256240,5.348538,8.786286,0.672645
58.289614,5.392084,8.852577,0.599769
58.322994,4.733805,8.854074,-0.515221
58.355718,5.604727,9.243146,-0.033819
58.389588,5.850740,9.593609,0.270854
58.422920,5.932744,10.035355,0.720232
58.456219,5.665931,10.126189,0.260528
58.489450,5.665632,10.480094,-0.100261
58.522946,5.493542,10.547433,-0.503848
58.556237,4.888536,10.492215,-1.517828
58.589564,4.184017,9.953501,-1.982619
58.622981,4.806531,8.996384,-0.201868
58.656212,4.808028,8.231110,-0.268459
58.689565,5.063468,7.803281,-3.177518
58.722897,5.294068,9.368247,-2.835435
58.756208,5.740902,8.024902,-0.803583
58.789617,5.531402,7.243168,-1.595044
58.822896,4.897514,7.933022,-3.690644
58.856212,3.823826,8.191156,-2.319615
58.889604,3.267753,6.691284,-3.514664
58.922924,4.121316,6.562143,-2.360318
58.956195,5.614304,6.878937,-1.981722
58.989571,5.183632,6.493157,-4.236841
59.022260,5.328935,6.224398,-5.245883
59.056183,6.216168,7.380989,-3.008422
59.089556,5.821111,5.293769,-3.128735
59.122896,5.124074,5.256209,-4.465046
59.156113,6.948521,6.114710,-4.287121
59.188804,6.935651,2.578947,-3.542348
59.222918,6.097202,2.263798,-4.259736
59.256204,6.391699,3.611483,-4.554982
59.289550,6.433599,3.392555,-4.218285
59.322908,7.048632,3.733292,-4.007139
59.356216,7.046836,5.121530,-4.810422
59.389541,7.152783,4.784833,-4.236093
59.422441,6.528323,3.992474,-3.398541
59.455583,7.244065,3.955512,-4.217986
59.489544,7.633436,3.839988,-4.919362
59.522947,7.010323,5.104770,-4.217986
59.555827,6.505577,5.268779,-5.575846
59.589000,8.502263,5.425155,-3.685257
59.622880,7.707659,5.263840,-5.593653
59.656204,7.886034,6.431953,-4.024048
59.689119,8.792720,6.601199,-3.358437
59.722868,7.988539,6.091964,-4.211551
59.756223,8.538327,6.123838,-4.778399
59.789576,7.647952,8.450038,-3.169138
59.822875,7.436955,6.573216,-3.277330
59.856207,7.798642,7.418549,-2.538543
59.889560,6.863074,6.150325,-1.575441
59.922889,6.312538,6.697719,-2.074051
59.956216,5.889497,7.352407,-1.700542
59.989533,5.568962,7.855058,-2.031852
60.022300,6.139551,7.262621,-2.134357
60.056217,5.879771,6.632175,-1.991748
60.089533,6.161249,6.957649,-1.381055
60.122900,5.819764,7.929430,-1.032387
60.156219,5.893239,7.364378,-0.363932
60.189362,6.734830,6.942685,-0.709607
60.222952,6.477295,4.574735,-1.444653
60.256208,6.239213,6.155413,-1.937876
60.289591,6.611674,4.956474,-1.747081
60.322846,7.093525,6.469962,-2.071058
60.356161,6.261809,8.054981,-1.019667
60.389549,6.376286,7.117916,-1.450938
60.422956,5.949804,6.170826,-1.250416
60.456209,5.733270,8.853326,-1.016973
60.489545,6.166636,6.662553,-1.572747
60.522710,6.113214,6.581297,-1.490893
60.555604,5.784598,8.182626,-0.748215
60.589541,5.964618,7.176876,-1.321198
60.622905,5.963122,6.170527,-2.145132
60.656214,6.337977,7.927185,-0.869874
60.689589,6.292187,7.650945,-1.105712
60.722880,6.276624,7.321580,-1.289324
60.756296,6.407711,7.083349,-1.082517
60.789549,6.242655,8.263284,-0.732353
60.822874,6.511114,8.051838,-1.131151
60.856243,6.200755,6.994611,-0.896361
60.889555,5.488754,8.303837,-0.266813
60.922875,6.118750,9.094999,-1.091496
60.956204,7.282224,7.084247,-1.247723
60.989551,5.784298,7.324573,-0.432618
