time_tick,gyr_X_value,gyr_Y_value,gyr_Z_value
0.015662,0.003843,0.001400,0.007918
0.045654,0.018118,-0.004568,0.009910
0.085643,0.021054,-0.003051,0.006613
0.115635,0.013564,-0.002039,0.008322
0.145627,0.012280,0.001657,0.007755
0.185616,0.003982,0.004276,0.007284
0.215608,-0.002085,0.001633,0.006176
0.245600,0.001470,0.001558,0.007511
0.285589,0.001906,0.000826,0.007655
0.315581,0.006991,0.002458,0.006166
0.345573,0.013266,0.001003,0.007567
0.385562,0.018632,-0.001565,0.008534
0.415553,0.018376,-0.000965,0.005741
0.445545,0.012380,-0.002444,0.007072
0.485534,0.008814,-0.000239,0.006662
0.515526,0.005104,-0.000780,0.009360
0.545518,0.004785,-0.004790,0.007227
0.585507,0.004454,-0.004392,0.006413
0.615499,0.006677,-0.006025,0.005001
0.645491,0.004860,-0.001844,0.007529
0.685480,0.005213,-0.000581,0.008887
0.715472,0.005355,-0.001815,0.004910
0.745464,0.000506,0.005573,0.004859
0.785453,-0.000215,0.001769,0.008899
0.815444,0.017929,-0.000884,0.007103
0.845436,0.022145,0.001238,0.006095
0.885425,0.020937,-0.002777,0.009462
0.915417,0.022105,0.002185,0.008819
0.945409,0.019748,-0.000983,0.008277
0.985398,0.013638,0.000172,0.007327
1.015390,0.010164,0.000930,0.008140
1.045382,0.005107,-0.000710,0.006481
1.085371,-0.002880,0.003563,0.004134
1.115363,-0.003719,0.004896,0.007468
1.145355,0.008731,0.005428,0.009229
1.185344,0.029591,0.002705,0.008400
1.215335,0.021008,0.000168,0.006845
1.245327,0.014901,-0.003915,0.007339
1.285316,-0.003769,-0.004905,0.004742
1.315308,-0.016272,-0.000107,0.003909
1.345300,-0.028444,0.009265,0.002858
1.385289,-0.019687,0.004336,0.008059
1.415281,-0.004643,0.005607,0.007119
1.445273,0.005527,0.004293,0.006881
1.485262,0.012749,0.001823,0.008439
1.515254,0.011328,0.002442,0.006387
1.545246,0.012887,0.000660,0.007277
1.585235,0.024165,-0.004871,0.006872
1.615227,0.023918,-0.004039,0.008009
1.645218,0.024876,-0.009377,0.009742
1.685207,0.012458,-0.004858,0.005253
1.715199,0.005604,-0.003056,0.006593
1.745191,0.003964,-0.001671,0.007070
1.785179,0.003841,0.002185,0.006586
1.815171,0.005707,0.001577,0.006607
1.845164,0.007080,-0.000912,0.004806
1.885152,0.006230,0.000138,0.009638
1.915144,0.003822,0.002149,0.007405
1.945136,0.002846,-0.000759,0.007632
1.985125,0.002095,-0.000472,0.005987
2.015117,0.002582,-0.000272,0.005863
2.045108,0.003493,-0.000163,0.005768
2.085098,0.012881,-0.000481,0.007095
2.115090,0.015052,0.000432,0.009656
2.145082,0.018146,0.002096,0.008763
2.185071,0.014529,0.001950,0.009374
2.215063,0.012520,-0.000088,0.007583
2.245055,0.006846,0.002074,0.007909
2.285044,0.006418,0.006431,0.007690
2.315036,0.005745,0.002938,0.008419
2.345028,0.001867,0.002452,0.004886
2.385017,0.004481,0.005292,0.007244
2.415009,0.001249,0.000573,0.006571
2.445000,0.000198,0.002528,0.007018
2.484989,0.005641,-0.000152,0.006171
2.514981,0.006271,0.005543,0.008213
2.544973,0.008948,0.003202,0.008458
2.584962,0.008863,0.001593,0.006898
2.614954,0.011136,0.000357,0.005971
2.644946,0.014287,0.002053,0.008463
2.684935,0.012003,-0.000144,0.006994
2.714927,0.011382,0.000020,0.006271
2.744919,0.005122,0.000616,0.006305
2.784908,0.001280,0.001365,0.007928
2.814899,0.004561,-0.000968,0.006069
2.844891,0.006712,0.002919,0.008004
2.884880,0.006220,0.002342,0.006365
2.914872,0.008760,0.001289,0.004043
2.944864,0.008828,0.000240,0.007173
2.984853,0.011086,0.000376,0.006977
3.014845,0.010296,-0.000756,0.007579
3.044837,0.009848,-0.000177,0.006538
3.084826,0.012093,0.001655,0.009093
3.114818,0.005467,0.000206,0.006963
3.144810,0.005144,0.000194,0.008301
3.184799,0.003474,0.001742,0.006763
3.214790,0.009522,-0.001520,0.007353
3.244782,0.008388,-0.001699,0.007207
3.284771,0.006506,-0.001112,0.007001
3.314763,0.004946,-0.002594,0.005811
3.344755,0.008140,-0.003024,0.007436
3.384744,0.011673,-0.002937,0.008179
3.414736,0.009021,-0.002187,0.007004
3.444728,0.009564,-0.001341,0.007982
3.484717,0.004364,-0.001829,0.006825
3.514709,0.001442,0.001081,0.006292
3.544700,0.004539,0.004868,0.006536
3.584690,0.005494,0.001384,0.008017
3.614681,0.004249,0.000987,0.009665
3.644673,0.009458,0.002207,0.008170
3.684662,0.008497,-0.001840,0.006208
3.714654,0.007880,0.002812,0.007167
3.744646,0.007926,0.001708,0.006817
3.784635,0.009037,0.000690,0.005712
3.814627,0.011081,-0.001097,0.006058
3.844619,0.007781,-0.001225,0.009138
3.884608,0.009981,-0.001366,0.006693
3.914600,0.001742,0.000644,0.008802
3.944591,0.004963,-0.000659,0.007130
3.984580,0.003755,0.002251,0.008830
4.014572,0.001663,0.003153,0.006782
4.044564,0.004604,0.001290,0.007230
4.084553,0.004845,0.000525,0.006999
4.114544,0.009296,0.002353,0.007907
4.144536,0.008700,0.001731,0.006016
4.184525,0.003922,0.002581,0.009862
4.214517,0.006873,0.000528,0.009488
4.244509,0.006402,0.001373,0.006856
4.284498,0.006058,0.004120,0.007612
4.314489,0.006969,0.003314,0.011280
4.344481,0.009579,0.002821,0.009966
4.384470,0.008329,-0.001721,0.006053
4.414462,0.008872,-0.003078,0.005646
4.444454,0.004185,-0.002522,0.008392
4.484443,0.004241,0.000653,0.009918
4.514435,0.007991,-0.000806,0.006408
4.544427,0.012721,-0.000794,0.009990
4.574418,0.012182,-0.002253,0.008435
4.614407,0.012445,-0.001701,0.006752
4.644398,0.015301,-0.000067,0.008085
4.674390,0.010202,0.000203,0.008956
4.714379,0.001784,0.000915,0.007592
4.744371,0.001466,0.000703,0.005634
4.774363,0.004824,-0.002894,0.005987
4.814352,0.012277,0.001551,0.005061
4.844344,0.008880,0.002784,0.006091
4.874336,0.006851,0.002513,0.007992
4.914325,0.002051,0.000725,0.005425
4.944317,0.002193,0.000785,0.007540
4.974308,0.007449,0.002094,0.007675
5.014298,0.010927,-0.000366,0.006233
5.044289,0.010162,-0.000647,0.008088
5.074281,0.011392,0.001173,0.008859
5.114270,0.003365,0.000072,0.005690
5.144262,0.003425,-0.001091,0.007882
5.174254,0.003925,0.001360,0.008077
5.214243,0.006090,0.001690,0.006467
5.244235,0.011256,-0.001023,0.006309
5.274227,0.007111,0.001292,0.008580
5.314216,0.010127,0.000791,0.008442
5.344207,0.013303,-0.002290,0.007373
5.374199,0.016212,-0.002320,0.007436
5.414188,0.015265,-0.002540,0.006942
5.444180,0.018373,-0.005056,0.007256
5.474172,0.009325,0.001317,0.006193
5.514161,0.025053,-0.011277,0.009345
5.544153,0.013273,-0.001701,0.011579
5.574145,-0.000626,0.001227,0.006079
5.614134,-0.002635,0.000786,0.005324
5.644126,0.009847,0.000570,0.010107
5.674117,0.015921,0.000453,0.007157
5.714106,0.017858,0.000079,0.006894
5.744098,0.013737,0.000802,0.004418
5.774090,0.003071,0.003748,0.006380
5.814079,0.006844,0.004976,0.008749
5.844071,0.024921,0.000150,0.006526
5.874063,0.034849,-0.004674,0.008324
5.914052,0.026560,-0.002867,0.008596
5.944044,0.025616,-0.003476,0.009180
5.974035,0.015604,-0.001246,0.008000
6.014025,0.009635,0.001058,0.010725
6.044016,0.001975,0.000322,0.006746
6.074008,0.008975,-0.002418,0.006999
6.114001,0.010701,-0.002101,0.006433
6.143993,0.013718,-0.005963,0.007164
6.173985,0.017878,-0.007445,0.008138
6.213974,0.027271,-0.006455,0.006039
6.243966,0.027324,-0.006925,0.005730
6.273958,0.024942,-0.002431,0.007786
6.313947,0.013885,0.000826,0.007350
6.343938,0.005825,-0.003177,0.005970
6.373930,0.002762,0.001140,0.006456
6.413919,0.009658,0.001932,0.009562
6.443911,0.011082,-0.002096,0.007217
6.473903,0.013145,-0.001070,0.007399
6.513892,0.012479,-0.001437,0.005579
6.543884,0.003863,-0.001258,0.008616
6.573876,-0.003639,0.002771,0.007794
6.613865,-0.010986,0.002572,0.006514
6.643856,-0.009580,-0.000327,0.005939
6.673848,0.001997,-0.000757,0.007242
6.713837,0.017090,-0.002978,0.005983
6.743829,0.015844,-0.001469,0.006398
6.773821,0.020347,-0.000331,0.011526
6.813810,0.013751,-0.000032,0.007792
6.843802,0.006331,0.002589,0.007792
6.873793,0.003893,0.005342,0.009032
6.913783,0.002770,-0.000613,0.006763
6.943774,0.004683,-0.000463,0.004999
6.973766,0.004759,0.000464,0.003975
7.013755,0.005521,0.001992,0.008293
7.043747,-0.000566,0.005029,0.004634
7.073739,-0.009862,0.003932,0.006026
7.113729,-0.010396,0.007531,0.005548
7.143721,-0.003907,0.007175,0.007618
7.173712,-0.002201,0.005233,0.008370
7.213702,-0.008583,0.006278,0.005824
7.243693,-0.012834,0.006661,0.006778
7.273685,-0.016925,0.009788,0.007310
7.313674,-0.022095,0.012521,0.005140
7.343666,-0.021493,0.014984,0.006510
7.373658,-0.009687,0.010783,0.009165
7.413647,0.004814,0.002522,0.009148
7.443639,0.011690,-0.003797,0.006035
7.473630,0.006787,-0.005399,0.007491
7.513619,0.010271,-0.007905,0.007221
7.543611,0.009961,-0.002423,0.007168
7.573603,0.006785,-0.002509,0.006527
7.613592,0.005993,-0.003258,0.008046
7.643584,0.007268,-0.002134,0.007644
7.673576,0.010132,-0.004753,0.005988
7.713565,0.007881,0.000110,0.007433
7.743557,-0.000179,0.002322,0.007789
7.773548,-0.003983,0.006894,0.008159
7.813537,-0.009555,0.005800,0.006689
7.843529,-0.011867,0.007722,0.007199
7.873521,-0.006349,0.003842,0.009143
7.913510,0.003986,0.002237,0.007153
7.943502,0.007975,0.000496,0.008463
7.973494,0.007166,0.001704,0.007648
8.018482,0.009828,-0.001148,0.009826
8.048474,0.009497,-0.000254,0.006830
8.078466,0.008931,-0.000541,0.007554
8.118450,0.004034,0.001081,0.007250
8.148442,0.009422,-0.002379,0.006893
8.178434,0.005834,-0.000638,0.006841
8.218423,0.011485,-0.000750,0.006358
8.248414,0.008715,-0.003658,0.008550
8.278406,0.006442,-0.000115,0.007860
8.318395,0.004364,0.001534,0.006467
8.348387,0.005619,0.000004,0.006644
8.378379,0.006185,0.003077,0.007140
8.418368,0.008473,0.000506,0.005936
8.448360,0.010948,0.000675,0.007053
8.478351,0.010029,0.003285,0.003049
8.518340,0.005408,0.001648,0.007237
8.548332,0.007515,0.001944,0.008235
8.578322,0.008227,0.001642,0.004497
8.608314,0.006465,-0.001897,0.009179
8.638305,0.008690,0.000813,0.008458
8.678294,0.008584,-0.002579,0.007645
8.708286,0.008691,-0.001646,0.008672
8.738278,0.010943,-0.000822,0.006565
8.778267,0.009397,0.001664,0.007541
8.808259,0.010483,-0.001725,0.007295
8.838251,0.005173,-0.001913,0.005071
8.878240,0.006833,0.000590,0.007982
8.908232,0.010809,-0.001307,0.006283
8.938223,0.010374,-0.002426,0.006672
8.978212,0.010403,0.001195,0.005745
9.008204,0.007164,-0.001711,0.006870
9.038196,0.008870,-0.000610,0.007809
9.078185,0.008490,-0.001189,0.006826
9.108178,0.010391,0.002275,0.010013
9.138169,0.009870,-0.002784,0.008400
9.178159,0.005493,-0.001332,0.004772
9.208150,0.005617,-0.001130,0.007485
9.238142,0.005711,0.000597,0.008859
9.278131,0.007847,-0.000384,0.007773
9.308123,0.007755,0.003118,0.006215
9.338115,0.007886,-0.000424,0.006244
9.378104,0.006559,-0.002644,0.007681
9.408095,0.006106,0.000395,0.009239
9.438087,0.008364,0.001971,0.004964
9.478076,0.007506,0.000904,0.007428
9.508068,0.006150,0.002817,0.006695
9.538060,0.014361,-0.000067,0.006427
9.578049,0.007132,0.001599,0.006276
9.608041,0.006948,-0.002131,0.008948
9.638032,0.004859,0.000617,0.006380
9.678021,0.010125,0.001392,0.008375
9.708013,0.010278,0.001827,0.006738
9.738005,0.007772,0.000638,0.010076
9.777994,0.009725,0.000489,0.006211
9.807986,0.006269,0.000119,0.005043
9.837978,0.010607,0.000243,0.007487
9.877967,0.012272,0.001844,0.006586
9.907958,0.007880,0.002838,0.009146
9.937950,0.005042,0.001331,0.006579
9.977939,0.005047,0.000564,0.008507
10.007931,0.003414,0.002413,0.008734
10.037923,0.004399,0.000192,0.007091
10.077912,0.010762,0.000107,0.008642
10.107903,0.008385,-0.000172,0.008521
10.137894,0.009848,-0.002480,0.006751
10.177883,0.010891,-0.000783,0.005422
10.207875,0.008759,0.001702,0.004303
10.237867,0.005944,0.002544,0.008078
10.277856,0.011486,-0.002409,0.006025
10.307848,0.004325,0.000196,0.007951
10.337839,0.009217,-0.002621,0.008700
10.377828,0.007370,-0.000880,0.006498
10.407820,0.007711,-0.000494,0.006707
10.437812,0.008044,0.001613,0.007514
10.477801,0.008915,0.000595,0.006529
10.507793,0.009093,-0.000808,0.007557
10.537785,0.005959,-0.002540,0.006575
10.577774,0.005541,-0.001034,0.011073
10.607765,0.004028,0.003458,0.008094
10.637757,0.003130,0.003375,0.004388
10.677746,0.017039,-0.002924,0.007019
10.707738,0.008555,0.003540,0.008512
10.737730,0.009282,0.003852,0.006156
10.777719,0.010300,0.002314,0.006619
10.807710,0.015472,-0.000239,0.007168
10.837702,0.016045,-0.002032,0.009401
10.877691,0.014494,0.000050,0.008650
10.907683,0.009212,-0.004503,0.005253
10.937675,-0.002447,-0.004021,0.008788
10.977664,-0.002594,-0.000578,0.007666
11.007656,0.001293,0.002035,0.008189
11.037647,0.004980,0.002772,0.008810
11.077636,0.005539,0.002730,0.008130
11.107629,0.009980,-0.000198,0.008830
11.137621,0.008616,0.002155,0.009993
11.177610,0.006782,0.001238,0.011682
11.207602,0.000509,0.002198,0.008823
11.237593,0.000057,0.001700,0.008922
11.277582,-0.000471,0.000290,0.006155
11.307574,0.002269,-0.000815,0.005207
11.337566,0.003322,0.002010,0.008702
11.377555,0.005911,0.001267,0.007800
11.407547,0.005659,0.002134,0.005591
11.437539,0.004807,0.001513,0.009790
11.477528,0.007823,0.000161,0.007883
11.507519,0.010292,0.001756,0.002904
11.537511,0.011824,-0.002763,0.008952
11.577500,0.010125,-0.001190,0.005987
11.607492,0.009584,0.000174,0.009046
11.637484,0.007176,-0.000029,0.006042
11.677473,0.005959,0.002305,0.006738
11.707464,0.006817,0.003699,0.008881
11.737456,0.008781,-0.000150,0.005966
11.777445,0.007292,-0.005995,0.005895
11.807437,0.001762,-0.000120,0.007740
11.837429,0.008460,-0.002011,0.008093
11.877418,0.004506,0.004000,0.006125
11.907410,0.005420,0.003658,0.005077
11.937401,0.006630,0.002731,0.007500
11.977390,0.012629,-0.004787,0.006769
12.007382,0.010289,-0.001411,0.008445
12.037374,0.007510,0.001385,0.007724
12.077363,0.008699,0.002540,0.007204
12.107355,0.004640,0.000839,0.008100
12.137346,0.005077,0.001297,0.007462
12.177335,0.007462,-0.002002,0.007670
12.207327,0.008532,-0.002410,0.007834
12.237319,0.009655,-0.000879,0.010439
12.277308,0.010224,0.000839,0.007743
12.307300,0.008117,0.000430,0.007092
12.337291,0.007405,0.001599,0.007928
12.377280,0.009794,0.003417,0.006834
12.407272,0.008298,0.000115,0.008421
12.437264,0.008565,0.002374,0.008851
12.477253,0.012522,-0.000530,0.005239
12.507245,0.008032,0.000265,0.005376
12.537236,0.007797,0.000255,0.005000
12.577225,0.010130,0.000165,0.006702
12.607217,0.003718,-0.000598,0.009790
12.637209,0.007104,0.000807,0.008651
12.677198,0.007788,-0.000672,0.004964
12.707190,0.010952,-0.001713,0.005712
12.737181,0.009284,0.000467,0.008562
12.777170,0.009954,0.000278,0.008968
12.807162,0.012231,0.000499,0.007601
12.837154,0.006271,-0.000042,0.003170
12.877143,0.004345,0.000224,0.005645
12.907135,0.008466,0.003436,0.007298
12.937126,0.006889,-0.000578,0.006627
12.977115,0.007068,0.001732,0.007640
13.007107,0.006721,-0.001369,0.006885
13.037099,0.005300,-0.002852,0.007117
13.077088,0.007826,-0.001582,0.005967
13.107083,0.007148,0.001762,0.007485
13.137075,0.012058,-0.000308,0.006531
13.177064,0.008051,-0.000603,0.005147
13.207055,0.011735,-0.000622,0.005920
13.237047,0.010561,-0.001548,0.007350
13.277036,0.006064,-0.000060,0.006885
13.307028,0.004434,-0.000262,0.004877
13.337019,0.008486,-0.001307,0.008086
13.377008,0.006207,-0.000357,0.009735
13.407000,0.005150,-0.003327,0.005156
13.436992,0.010584,-0.001848,0.008993
13.476981,0.008632,-0.000744,0.007094
13.506973,0.010580,0.002745,0.008302
13.536964,0.006386,0.000634,0.006792
13.576953,0.002238,0.002273,0.003094
13.606945,0.001948,-0.001599,0.008261
13.636937,0.003762,0.000460,0.009050
13.676926,0.006327,0.001472,0.005153
13.706918,0.010534,-0.000406,0.008808
13.736909,0.009236,-0.000549,0.007249
13.776898,0.008186,0.001953,0.007942
13.806890,0.005962,0.000293,0.009050
13.836882,0.009579,0.002267,0.009721
13.876871,0.007440,0.000239,0.008934
13.906863,0.005634,0.000401,0.003836
13.936854,0.008358,0.001137,0.007586
13.976843,0.010302,0.002295,0.008042
14.006835,0.006358,-0.000643,0.005921
14.036827,0.008897,-0.000294,0.004974
14.076816,0.006813,-0.000925,0.005435
14.106808,0.004221,0.000393,0.007889
14.136799,0.003655,0.002620,0.007521
14.176788,0.007515,-0.000238,0.005261
14.206780,0.009636,-0.003848,0.008769
14.236772,0.010946,-0.000680,0.006361
14.276761,0.009327,-0.000054,0.006147
14.306753,0.004963,0.001504,0.006786
14.336744,0.005630,0.001597,0.007809
14.376733,0.004057,0.001530,0.007419
14.406725,0.008677,0.000785,0.008324
14.436717,0.010171,-0.002219,0.007938
14.476706,0.007346,-0.000205,0.007010
14.506698,0.007145,0.002166,0.006163
14.536689,0.008974,0.000794,0.006639
14.576678,0.006398,0.000624,0.007473
14.606670,0.007901,-0.000033,0.006832
14.636662,0.007674,0.000997,0.006699
14.676651,0.012105,0.000323,0.007318
14.706642,0.008165,0.001097,0.007518
14.736634,0.011012,0.001880,0.006165
14.776623,0.006866,-0.000974,0.007186
14.806615,0.010064,-0.000377,0.007654
14.836607,0.011630,0.000139,0.007562
14.876596,0.007513,0.000190,0.007348
14.906587,0.010440,-0.001739,0.006850
14.936579,0.008358,0.000288,0.006359
14.976568,0.009229,0.001884,0.007587
15.006560,0.012908,0.001293,0.006968
15.036551,0.007003,0.002102,0.005710
15.076540,0.001818,0.001300,0.007270
15.106529,0.004866,0.002053,0.007765
15.136521,0.005777,0.000683,0.004680
15.176510,0.005967,0.002478,0.004614
15.206502,0.008205,0.000006,0.008588
15.236493,0.007361,0.001891,0.007305
15.276482,0.008289,0.002288,0.007509
15.306474,0.006782,0.000815,0.008710
15.336466,0.008222,0.001523,0.008461
15.376455,0.008543,0.002174,0.005360
15.406447,0.008954,-0.000311,0.007083
15.436438,0.009209,-0.001041,0.008246
15.476427,0.007452,0.001056,0.005231
15.506419,0.005528,0.000629,0.006448
15.536411,0.010019,0.000656,0.007787
15.576400,0.007090,-0.001119,0.008140
15.606391,0.007085,0.000472,0.005961
15.636383,0.008847,-0.001765,0.005358
15.676372,0.011043,-0.001565,0.008724
15.706364,0.008636,0.001817,0.007976
15.736356,0.007700,-0.000343,0.006029
15.776345,0.006837,0.000643,0.005363
15.806336,0.006352,0.001120,0.007189
15.836328,0.005850,0.002714,0.007640
15.876317,0.010457,-0.000223,0.006403
15.906309,0.010620,0.000534,0.007838
15.936300,0.011135,0.000824,0.008070
15.976289,0.008375,0.000713,0.004712
16.016280,0.006220,0.000762,0.006263
16.046272,0.006857,0.002338,0.009619
16.086261,0.006218,0.000040,0.004829
16.116253,0.008254,0.002536,0.006438
16.146245,0.009545,0.000170,0.009303
16.186234,0.009605,-0.002539,0.006092
16.216225,0.001485,0.002128,0.006019
16.246217,0.007077,-0.001053,0.007313
16.286206,0.007992,-0.002153,0.007365
16.316198,0.008050,-0.000762,0.007653
16.346189,0.009027,-0.000530,0.006115
16.386178,0.011675,-0.002236,0.006615
16.416170,0.010694,-0.000482,0.008875
16.446162,0.009845,0.001531,0.005229
16.486151,0.007307,0.000723,0.008485
16.516143,0.002203,0.002852,0.008789
16.546134,0.003096,0.003090,0.006736
16.576124,0.006457,0.001519,0.007694
16.606115,0.004187,0.002304,0.008044
16.636107,0.008115,0.001100,0.009529
16.676096,0.007314,-0.000580,0.008446
16.706088,0.009658,-0.000646,0.007714
16.736079,0.010675,0.001237,0.008644
16.776068,0.004478,-0.000113,0.009915
16.806060,0.003782,0.000466,0.006159
16.836052,0.010598,0.003098,0.008913
16.876041,0.017539,-0.001225,0.009649
16.906033,0.010780,-0.001799,0.008355
16.936024,0.008930,0.000290,0.006654
16.976013,0.003079,-0.003178,0.003919
17.006005,0.005629,-0.001021,0.008915
17.035997,0.005881,-0.000919,0.005021
17.075986,0.006384,-0.000464,0.006416
17.105977,0.004281,0.002816,0.010199
17.135969,0.028758,-0.007785,0.009395
17.175958,0.013847,-0.003928,0.007229
17.205950,-0.000203,0.004412,0.007027
17.235941,0.002188,0.001508,0.006054
17.275930,0.008444,0.000306,0.009853
17.305922,0.005903,0.000403,0.006339
17.335914,0.004108,0.000281,0.008657
17.375903,0.002124,0.001447,0.008944
17.405895,0.002913,0.005020,0.009048
17.435886,0.007698,-0.000775,0.008293
17.475875,0.008965,-0.001274,0.006784
17.505867,0.009311,0.000857,0.008714
17.535859,0.009290,-0.001841,0.007401
17.575848,0.008593,0.001272,0.008843
17.605839,0.010183,0.001982,0.006220
17.635831,0.007814,0.001288,0.009900
17.675820,0.005395,0.003122,0.005814
17.705812,0.005237,0.002792,0.009889
17.735803,0.005393,0.002671,0.007898
17.775792,0.007425,0.002264,0.007640
17.805784,0.007505,-0.000309,0.005334
17.835776,0.006081,0.003498,0.004841
17.875765,0.007107,0.003458,0.008059
17.905756,0.006964,0.003386,0.005123
17.935748,0.003764,0.003386,0.008751
17.975737,0.004165,0.002696,0.006495
18.005729,0.002061,0.002842,0.008837
18.035721,0.006343,-0.000576,0.006529
18.075710,0.011260,-0.000795,0.006830
18.105701,0.009764,0.003336,0.007784
18.135693,0.008673,-0.003343,0.005757
18.175682,0.006164,-0.001687,0.007378
18.205674,0.011204,0.000983,0.008640
18.235665,0.006310,-0.002148,0.008965
18.275654,0.006964,-0.001346,0.007204
18.305646,0.009952,0.002379,0.006175
18.335638,0.006904,0.000810,0.006388
18.375627,0.012277,-0.002251,0.007569
18.405618,0.002869,0.001770,0.006903
18.435610,0.007392,-0.001799,0.004871
18.475599,0.009444,-0.001678,0.006180
18.505591,0.008524,0.000331,0.006400
18.535582,0.008633,-0.001481,0.006296
18.575571,0.010757,-0.000668,0.007929
18.605563,0.011725,0.000150,0.009179
18.635555,0.009323,-0.001851,0.007293
18.675544,0.009325,0.001337,0.006200
18.705535,0.003722,0.001991,0.008202
18.735527,0.002641,0.000905,0.010591
18.775516,0.006136,0.001188,0.005908
18.805508,0.007774,-0.001646,0.006649
18.835499,0.007795,0.000893,0.009283
18.875488,0.009932,0.000282,0.008185
18.905480,0.007802,0.001908,0.007604
18.935472,0.009925,0.001438,0.007078
18.975461,0.009865,0.001304,0.008355
19.005452,0.010282,-0.000505,0.006905
19.035444,0.009616,0.000113,0.006479
19.075433,0.011525,0.002012,0.006645
19.105425,0.000792,0.001397,0.008478
19.135416,0.005741,0.000863,0.006216
19.175405,0.007923,0.000250,0.006785
19.205397,0.004829,0.001799,0.008457
19.235389,0.008702,0.001504,0.007165
19.275378,0.010945,-0.000046,0.005430
19.305369,0.011810,-0.001075,0.007592
19.335361,0.010457,0.003192,0.006752
19.375350,0.011459,0.000479,0.007673
19.405342,0.005064,-0.002881,0.005784
19.435333,0.006763,0.002937,0.004413
19.475322,0.007242,-0.002646,0.008663
19.505314,0.009363,-0.001711,0.007051
19.535306,0.006249,-0.000559,0.007213
19.575295,0.007577,-0.000586,0.005827
19.605286,0.008050,0.000118,0.007952
19.635278,0.005363,-0.000126,0.007208
19.675267,0.008085,-0.000294,0.005302
19.705259,0.007143,0.002231,0.007213
19.735250,0.007353,0.002218,0.006091
19.775239,0.004657,-0.000068,0.005014
19.805231,0.010286,0.001097,0.007218
19.835223,0.004532,0.000246,0.009942
19.875212,0.008752,0.000164,0.007035
19.905203,0.005844,0.002629,0.008913
19.935195,0.007047,0.000773,0.008752
19.975184,0.008644,-0.002179,0.008161
20.016425,0.010535,-0.000199,0.006611
20.046417,0.010635,-0.002310,0.006075
20.086405,0.010889,0.000407,0.008314
20.116397,0.006036,-0.000076,0.007408
20.146389,0.003775,0.002874,0.007788
20.186378,0.006021,0.002865,0.005268
20.216369,0.006508,0.000350,0.008072
20.246361,0.011893,0.001199,0.007002
20.286350,0.008748,0.003366,0.005106
20.316342,0.006398,-0.000863,0.009432
20.346333,0.007852,0.000563,0.007958
20.386322,0.006804,0.004078,0.006554
20.416314,0.007383,0.002361,0.007330
20.446306,0.007797,0.001935,0.008127
20.486295,0.013718,-0.001732,0.007275
20.516286,0.006886,-0.000056,0.005168
20.546278,0.009211,-0.001134,0.007493
20.576267,0.003547,0.001209,0.005066
20.606259,0.006908,-0.002813,0.007061
20.636251,0.007525,0.001539,0.009026
20.676240,0.007177,0.001988,0.008649
20.706231,0.007975,-0.000007,0.009279
20.736223,0.012517,0.000499,0.006318
20.776212,0.009139,0.000472,0.007968
20.806204,0.007731,0.000701,0.006429
20.836195,0.011549,0.000191,0.004884
20.876184,0.002898,0.002513,0.006761
20.906176,0.003259,0.003087,0.006300
20.936168,0.007192,0.000386,0.007389
20.976156,0.008681,-0.000036,0.003870
21.006148,0.008569,0.000232,0.006593
21.036140,0.011600,0.004048,0.006241
21.076129,0.007167,0.000354,0.006491
21.106123,0.009260,0.001580,0.007398
21.136115,0.007271,-0.001733,0.006365
21.176104,0.008364,0.001318,0.009882
21.206096,0.008732,-0.001165,0.006716
21.236087,0.003984,0.000384,0.006263
21.276076,0.010461,-0.001535,0.007785
21.306068,0.006327,0.002455,0.009286
21.336060,0.010018,-0.000975,0.008083
21.376049,0.006121,-0.000654,0.008892
21.406040,0.007350,0.000402,0.008935
21.436032,0.008609,-0.002578,0.007169
21.476021,0.008767,-0.001364,0.007581
21.506012,0.008468,-0.001747,0.007514
21.536004,0.006701,-0.001358,0.006222
21.575993,0.008566,-0.000025,0.008616
21.605985,0.006571,0.001583,0.006556
21.635976,0.005548,0.001094,0.004922
21.675965,0.008378,0.001393,0.007403
21.705957,0.007566,0.000292,0.007225
21.735949,0.008596,0.000955,0.007595
21.775938,0.008475,0.001803,0.008478
21.805929,0.008420,0.000106,0.007198
21.835921,0.008840,0.000715,0.007270
21.875910,0.006183,-0.000289,0.007935
21.905902,0.009680,0.000980,0.007726
21.935893,0.010865,-0.000390,0.006393
21.975882,0.010047,-0.001419,0.007360
22.005874,0.005107,-0.000985,0.006404
22.035865,0.006171,0.000622,0.006306
22.075854,0.006932,0.000304,0.008537
22.105843,0.005597,-0.000669,0.005857
22.135835,0.006738,-0.003039,0.006037
22.175824,0.010057,-0.000363,0.008065
22.205815,0.008857,-0.001292,0.006375
22.235807,0.010052,0.003287,0.006301
22.275796,0.009707,0.001591,0.009778
22.305787,0.001194,-0.000215,0.008396
22.335779,0.004801,0.000203,0.007489
22.375768,0.003902,0.001857,0.006418
22.405760,0.006836,0.000622,0.007350
22.435751,0.009704,0.000960,0.005204
22.475740,0.009805,-0.000119,0.006548
22.505732,0.011606,0.000717,0.009652
22.535724,0.004894,0.002207,0.008481
22.575713,0.007949,-0.001621,0.004763
22.605704,0.008616,0.000995,0.004309
22.635696,0.008651,-0.000178,0.007290
22.675685,0.011376,-0.003549,0.007984
22.705676,0.009928,-0.001031,0.007499
22.735668,0.009732,-0.001197,0.007677
22.775657,0.005267,-0.000372,0.007879
22.805649,0.007018,-0.000778,0.007284
22.835640,0.009705,0.001656,0.008161
22.875629,0.006172,0.003277,0.008425
22.905621,0.008445,0.000251,0.007772
22.935613,0.008096,0.000821,0.007796
22.975601,0.009780,-0.000789,0.007589
23.005593,0.009708,-0.000068,0.007262
23.035585,0.005581,0.000790,0.007947
23.075574,0.005329,0.002182,0.009023
23.105565,0.007109,0.000766,0.007542
23.135557,0.007612,-0.001576,0.009802
23.175546,0.011598,0.000857,0.006406
23.205538,0.010414,0.002283,0.005636
23.235529,0.010676,0.000198,0.008408
23.275518,0.007815,-0.000155,0.007363
23.305510,0.005254,-0.001223,0.004828
23.335502,0.007854,0.002033,0.006064
23.375490,0.008783,0.000964,0.008079
23.405482,0.009277,-0.001547,0.005776
23.435474,0.010500,0.003175,0.005236
23.475463,0.004810,0.003416,0.010219
23.505454,0.008689,-0.000300,0.007656
23.535446,0.008383,-0.000685,0.008621
23.575435,0.007692,0.000913,0.004976
23.605427,0.007955,-0.000997,0.007100
23.635418,0.009986,-0.001205,0.007682
23.675407,0.010379,-0.000064,0.006653
23.705399,0.011311,0.000919,0.009958
23.735390,0.009620,0.001280,0.008796
23.775379,0.004990,0.003236,0.007681
23.805371,0.003193,0.002144,0.006462
23.835363,0.005638,0.002246,0.007084
23.875352,0.008922,0.000342,0.007799
23.905343,0.010181,0.001112,0.006657
23.935335,0.008869,-0.000545,0.007004
23.975324,0.008834,0.000794,0.008141
24.019064,0.004838,0.000808,0.005983
24.049056,0.006007,-0.000687,0.009574
24.079047,0.003925,-0.000243,0.005943
24.119036,0.011100,-0.001903,0.009881
24.149028,0.013265,0.000805,0.009077
24.179020,0.011252,-0.001525,0.006995
24.219008,0.006310,0.000630,0.006230
24.249000,0.005171,0.000547,0.007528
24.278992,0.005547,-0.001812,0.009020
24.318981,0.007045,-0.000657,0.006476
24.348972,0.007445,-0.003087,0.007637
24.378964,0.007522,0.000952,0.010141
24.418953,0.010616,0.000738,0.006453
24.448944,0.007991,0.000866,0.006115
24.478936,0.006680,0.000572,0.006807
24.518925,0.004385,0.000353,0.006072
24.548917,0.006865,0.001814,0.007815
24.578907,0.007269,-0.000249,0.009837
24.608898,0.007833,-0.000556,0.009007
24.638890,0.006747,0.000334,0.008854
24.678879,0.006961,0.002301,0.006438
24.708871,0.009784,-0.000025,0.005459
24.738862,0.006728,-0.000502,0.009657
24.778851,0.007768,-0.000683,0.006267
24.808843,0.007176,0.002908,0.006664
24.838834,0.009010,0.000022,0.008087
24.878823,0.009035,0.000461,0.007786
24.908815,0.004795,0.004110,0.007940
24.938807,0.005275,0.001009,0.007630
24.978795,0.009373,-0.003846,0.008933
25.008787,0.006275,-0.001378,0.007389
25.038779,0.007493,-0.001279,0.006732
25.078768,0.008617,-0.002190,0.009812
25.108762,0.008166,0.000387,0.007823
25.138754,0.007356,-0.004694,0.007909
25.178743,0.007848,-0.003610,0.007247
25.208734,0.006183,0.001121,0.005932
25.238726,0.005665,0.002292,0.009969
25.278715,0.007486,0.000218,0.006123
25.308707,0.007684,0.001831,0.006438
25.338698,0.009709,0.001050,0.005999
25.378687,0.009674,-0.000157,0.007724
25.408679,0.011782,0.002720,0.005251
25.438670,0.007745,0.003268,0.005186
25.478659,0.008311,0.001975,0.009710
25.508651,0.004969,0.001911,0.007150
25.538643,0.002870,0.001910,0.007693
25.578632,0.007733,-0.000932,0.007607
25.608623,0.006962,-0.000092,0.007601
25.638615,0.015271,-0.001376,0.005592
25.678604,0.017628,-0.002375,0.007823
25.708595,0.014070,-0.002106,0.008392
25.738587,0.011005,0.001244,0.007217
25.778576,0.000550,0.001051,0.007606
25.808568,0.003663,-0.001132,0.006528
25.838559,0.006738,0.000034,0.006938
25.878548,0.009113,0.002305,0.007142
25.908540,0.012155,-0.001689,0.005503
25.938531,0.008543,0.003569,0.005673
25.978520,0.003034,0.003614,0.008460
26.008512,0.000468,0.003001,0.006641
26.038503,-0.000125,-0.000530,0.006081
26.078492,-0.000028,0.003400,0.008891
26.108481,0.011451,-0.002702,0.007715
26.138473,0.016935,-0.000130,0.007432
26.178462,0.010594,-0.000763,0.005857
26.208453,0.009464,0.000371,0.008885
26.238445,0.004875,-0.000275,0.007264
26.278434,0.004192,0.000241,0.008153
26.308425,0.011936,0.000813,0.006280
26.338417,0.007489,-0.001122,0.008641
26.378406,0.006245,-0.002484,0.004830
26.408397,0.008063,0.000035,0.009025
26.438389,0.012609,-0.001949,0.009512
26.478378,0.005253,-0.001359,0.007396
26.508370,0.005955,-0.000416,0.007153
26.538361,0.006603,0.000008,0.007824
26.578350,0.007186,0.001273,0.008905
26.608342,0.008974,0.000896,0.007096
26.638333,0.007380,0.000794,0.008840
26.678322,0.005912,0.001817,0.007435
26.708314,0.006694,-0.001407,0.006051
26.738306,0.006430,0.000441,0.006630
26.778294,0.004298,0.001640,0.006841
26.808286,0.005959,-0.000625,0.008280
26.838278,0.010685,-0.002112,0.009666
26.878267,0.010175,0.000830,0.007743
26.908258,0.010750,-0.006100,0.007514
26.938250,0.011089,0.000165,0.008571
26.978239,0.009398,-0.000831,0.008373
27.008230,0.005426,0.000733,0.005287
27.038222,0.007883,0.001771,0.008918
27.078211,0.010973,0.002149,0.007611
27.108202,0.003945,0.001001,0.006713
27.138194,0.007172,0.000912,0.006164
27.178183,0.005644,0.002576,0.009317
27.208175,0.006344,-0.002583,0.007564
27.238166,0.005709,-0.000787,0.008925
27.278155,0.005462,0.000293,0.009883
27.308147,0.004698,0.001122,0.007332
27.338138,0.009919,0.002287,0.006247
27.378127,0.008452,0.001962,0.007355
27.408119,0.008245,-0.000284,0.006082
27.438110,0.007247,0.000933,0.008493
27.478099,0.006856,0.002501,0.006666
27.508091,0.007820,-0.001550,0.006379
27.538083,0.007432,-0.000971,0.008945
27.578071,0.010240,-0.002712,0.006428
27.608063,0.008337,-0.001842,0.007662
27.638055,0.010545,-0.000112,0.009469
27.678044,0.008756,0.001722,0.008892
27.708035,0.005022,0.001658,0.007169
27.738027,0.004376,0.003200,0.007173
27.778016,0.005539,0.003148,0.006035
27.808007,0.011671,0.001531,0.009044
27.837999,0.004101,0.001771,0.006590
27.877988,0.010935,-0.000121,0.005574
27.907979,0.009837,0.001967,0.008949
27.937971,0.007629,0.000446,0.006860
27.977960,0.008113,-0.000047,0.006732
28.010453,0.009599,-0.001090,0.009460
28.050441,0.013096,-0.000763,0.009852
28.080433,0.013752,-0.001713,0.007102
28.110425,0.006270,0.001606,0.008029
28.150414,0.003864,0.000603,0.005094
28.180405,0.003257,0.000469,0.007767
28.210397,0.003804,0.004452,0.005770
28.250386,0.008689,0.003000,0.005365
28.280377,0.011593,-0.000225,0.008116
28.310369,0.008812,0.002430,0.005198
28.350358,0.007354,-0.001091,0.005819
28.380349,0.007289,0.000827,0.008280
28.410341,0.008981,0.002854,0.009078
28.450330,0.008001,0.002066,0.005189
28.480321,0.014974,-0.002429,0.006953
28.510313,0.007811,0.000239,0.007725
28.550302,0.009478,-0.001585,0.008246
28.570295,0.004306,0.001038,0.006994
28.610284,0.009085,-0.003483,0.008828
28.640275,0.007683,0.001816,0.008003
28.670267,0.006144,-0.001401,0.007248
28.710256,0.010248,-0.000866,0.007845
28.740247,0.011502,0.001430,0.006843
28.770239,0.008868,-0.002863,0.006989
28.810228,0.007379,0.000806,0.007321
28.840219,0.003575,0.000766,0.006918
28.870211,0.003844,0.002233,0.009133
28.910200,0.005790,-0.000718,0.008250
28.940191,0.007389,0.001942,0.004365
28.970183,0.007857,-0.000159,0.007870
29.010172,0.010704,-0.000223,0.008522
29.040164,0.008740,0.000710,0.009009
29.070155,0.008891,0.000132,0.006819
29.110144,0.007870,0.002440,0.004117
29.140136,0.009361,0.002820,0.008288
29.170127,0.009960,-0.000393,0.007468
29.210116,0.006131,-0.000433,0.006567
29.240108,0.008690,0.000052,0.007858
29.280097,0.003665,0.000861,0.006686
29.310088,0.006833,-0.000670,0.004079
29.340080,0.009162,-0.000622,0.005480
29.370071,0.009808,-0.000804,0.007143
29.410060,0.008646,-0.001352,0.008668
29.440052,0.008205,-0.001710,0.007834
29.480041,0.007172,-0.000516,0.009505
29.510032,0.010951,0.000484,0.007038
29.540024,0.010487,0.000616,0.006587
29.580013,0.004884,0.003240,0.006891
29.610005,0.005854,-0.000775,0.007976
29.639996,0.006027,-0.000245,0.007849
29.679985,0.005038,-0.001784,0.005874
29.709977,0.007061,0.001264,0.005953
29.739968,0.008888,-0.000095,0.007355
29.779957,0.008243,-0.001048,0.007334
29.809949,0.009001,0.004317,0.004970
29.839940,0.006189,0.001071,0.006252
29.879929,0.005834,0.000840,0.005134
29.909921,0.009291,0.000331,0.007770
29.939912,0.009756,0.001542,0.006249
29.979901,0.010296,0.000670,0.009385
30.009893,0.005389,-0.000107,0.007906
30.039884,0.005950,-0.000299,0.006425
30.079873,0.007034,0.000785,0.008164
30.109865,0.005051,-0.001719,0.005171
30.139857,0.006516,-0.000943,0.007551
30.179845,0.012431,0.000895,0.007252
30.209837,0.013340,-0.001880,0.007036
30.239829,0.010942,-0.000651,0.008479
30.279817,0.009054,0.000960,0.006017
30.309809,0.005368,0.001623,0.006339
30.339801,0.003181,0.002420,0.008877
30.379790,0.005193,0.002894,0.007167
30.409781,0.008105,-0.000244,0.007666
30.439773,0.008652,0.001174,0.006204
30.479762,0.009705,0.002864,0.006855
30.509753,0.008123,0.000371,0.007494
30.539745,0.007095,0.000948,0.007973
30.579734,0.009931,-0.000570,0.009847
30.609725,0.009573,0.000421,0.008078
30.639717,0.010837,-0.000658,0.005017
30.679706,0.011858,0.001523,0.008044
30.709697,0.010407,0.001689,0.008297
30.739689,0.004775,0.000330,0.006905
30.779678,0.009489,-0.000822,0.008337
30.809669,0.008925,-0.000018,0.007083
30.839661,0.005045,-0.000727,0.009701
30.879650,0.006408,-0.002190,0.008366
30.909641,0.012224,0.003225,0.008011
30.939633,0.006989,0.001091,0.010650
30.979622,0.009761,-0.000646,0.006368
31.009613,0.008284,0.001120,0.007293
31.039605,0.008383,0.000858,0.007663
31.079594,0.006605,-0.001448,0.007796
31.109586,0.007556,0.000395,0.005509
31.139577,0.006481,-0.002315,0.009235
31.179565,0.008617,-0.001711,0.008640
31.209558,0.008755,0.001351,0.007894
31.239549,0.008910,-0.001917,0.008693
31.279537,0.006259,0.000781,0.007377
31.309530,0.007886,0.000729,0.008271
31.339521,0.009497,0.000204,0.006806
31.379509,0.008762,-0.000587,0.006360
31.409502,0.005778,-0.001290,0.007106
31.439493,0.008127,-0.001499,0.009513
31.479481,0.005292,0.000337,0.008358
31.509474,0.008034,0.001168,0.007549
31.539465,0.005641,0.001126,0.010407
31.579453,0.010117,0.000253,0.007539
31.609446,0.008710,-0.002383,0.006074
31.639437,0.007874,-0.000474,0.007914
31.679425,0.011955,-0.000759,0.007398
31.709418,0.009601,0.002099,0.006639
31.739409,0.007583,0.000349,0.006467
31.779397,0.003149,0.000725,0.007764
31.809390,0.003537,-0.001890,0.007354
31.839381,0.007809,0.002771,0.006769
31.879369,0.008013,-0.000273,0.006304
31.909362,0.008579,-0.001900,0.008592
31.939354,0.008213,0.000665,0.008657
31.979341,0.004976,0.001035,0.007429
32.016834,0.007317,0.000976,0.007482
32.046825,0.007217,0.002849,0.008183
32.076817,0.005970,0.001185,0.008627
32.116806,0.010987,0.000398,0.011170
32.146797,0.010279,-0.001519,0.007863
32.176789,0.005337,0.000273,0.006870
32.216778,0.008553,-0.002788,0.006446
32.246769,0.006399,0.002339,0.007698
32.276761,0.006829,0.001635,0.005841
32.316750,0.009944,-0.001332,0.008437
32.346741,0.009465,-0.000557,0.007189
32.386730,0.007065,-0.001814,0.009200
32.416722,0.008460,0.000637,0.007527
32.446713,0.010126,0.000482,0.004114
32.476705,0.004869,0.002486,0.007967
32.516694,0.003211,0.002725,0.008020
32.546685,0.005490,0.001219,0.007049
32.576675,0.008097,-0.000207,0.004999
32.606666,0.010392,-0.001290,0.007493
32.636657,0.011613,0.000825,0.006330
32.676647,0.012313,-0.000438,0.005616
32.706638,0.011664,-0.003452,0.003640
32.736629,0.008030,-0.000967,0.008611
32.776619,0.000850,0.002249,0.008334
32.806610,0.001751,0.003892,0.007961
32.836601,0.011756,0.002461,0.007908
32.876591,0.016835,0.000003,0.007341
32.906582,0.013643,-0.000091,0.007625
32.936573,0.005695,0.001199,0.006083
32.976562,0.003354,0.000663,0.007273
33.006554,0.006784,0.002895,0.007020
33.036545,0.013110,-0.001864,0.005608
33.076534,0.013361,-0.002868,0.005792
33.106526,0.006322,-0.000750,0.007493
33.136518,-0.001368,-0.000552,0.008736
33.176507,-0.002416,0.001560,0.005491
33.206499,0.001157,0.005969,0.008232
33.236490,0.006173,0.002595,0.004062
33.276479,0.011298,0.002481,0.007037
33.306471,0.010241,-0.017211,0.008417
33.336462,0.023789,-0.072138,0.011259
33.376451,0.013052,-0.033809,0.007597
33.406443,0.007010,-0.006207,0.004731
33.436434,0.015737,-0.004634,0.007780
33.476423,0.010923,0.002709,0.006481
33.506415,0.006832,0.010115,0.006109
33.536406,0.006150,0.002912,0.008108
33.576395,0.006984,0.000921,0.005447
33.606387,0.012125,-0.007669,0.006520
33.636378,0.008939,-0.008271,0.005776
33.676367,0.004937,0.001970,0.003838
33.706359,-0.000336,0.010196,0.007679
33.736350,0.007092,0.007950,0.008038
33.776339,0.002175,0.018553,0.005703
33.806331,0.000713,0.014988,0.008619
33.836322,-0.002539,0.016708,0.008404
33.876311,-0.000244,0.010108,0.006848
33.906303,0.006076,0.005264,0.007344
33.936294,0.006276,0.004375,0.007871
33.976283,0.004749,0.004702,0.007387
34.006275,0.007322,0.000627,0.006548
34.036266,0.008277,0.000868,0.009797
34.076255,0.007767,0.001037,0.008983
34.106247,0.013104,-0.000365,0.006360
34.136238,0.010933,-0.001686,0.006436
34.176227,0.007601,-0.000185,0.007446
34.206219,0.006349,0.002009,0.008372
34.236210,0.006561,0.000685,0.007791
34.276199,0.005151,-0.000523,0.007689
34.306191,0.009008,0.000315,0.007192
34.336182,0.008379,-0.000011,0.008580
34.376171,0.005166,0.001250,0.005145
34.406163,0.008050,0.000758,0.010257
34.436154,0.005293,-0.001130,0.006547
34.476143,0.009177,-0.001741,0.006943
34.506135,0.007564,0.000021,0.007083
34.536126,0.006660,0.000823,0.008463
34.576115,0.011465,-0.002059,0.007484
34.606107,0.007241,-0.000174,0.007558
34.636098,0.011498,-0.000535,0.009654
34.676087,0.006931,0.001005,0.009813
34.706079,0.003929,0.003367,0.006015
34.736070,0.005759,0.002093,0.005974
34.776059,0.004673,0.002416,0.006120
34.806051,0.006310,0.000293,0.008529
34.836042,0.008391,0.003956,0.006603
34.876031,0.011014,0.001656,0.005254
34.906023,0.007841,-0.002464,0.010028
34.936014,0.008263,0.001072,0.008220
34.976003,0.008678,0.001829,0.007404
35.005995,0.006813,0.000749,0.006201
35.035986,0.006240,0.001496,0.008995
35.075975,0.009261,0.002152,0.006707
35.105967,0.009829,-0.000236,0.005324
35.135958,0.006316,0.003864,0.006522
35.175947,0.008188,0.001660,0.007619
35.205939,0.013187,-0.001088,0.005328
35.235930,0.003830,0.001730,0.004999
35.275919,0.010420,-0.000280,0.006879
35.305911,0.006563,0.000560,0.006676
35.335902,0.007165,0.000179,0.010185
35.375891,0.007428,-0.002129,0.009667
35.405883,0.009020,0.002147,0.008418
35.435874,0.008157,0.000951,0.007876
35.475863,0.006601,0.003182,0.007393
35.505854,0.009953,0.001558,0.007783
35.535846,0.010541,0.000888,0.006083
35.575835,0.001854,-0.000604,0.008546
35.605826,-0.006152,0.002300,0.005146
35.635818,-0.001588,0.000436,0.005559
35.675807,0.037623,-0.014427,0.005799
35.705798,0.025548,-0.001641,0.007928
35.735790,0.005285,0.003247,0.007302
35.775779,-0.009598,0.007069,0.007090
35.805770,0.009496,-0.000215,0.006775
35.845759,0.023361,-0.000692,0.008756
35.875751,0.006197,0.006621,0.007963
35.905742,0.002757,-0.002039,0.006012
35.935734,0.007573,-0.001226,0.005903
35.975723,0.007996,0.002965,0.006459
36.005714,0.005928,0.002860,0.008457
36.035706,0.008175,0.002313,0.006663
36.075695,0.009080,0.000462,0.009451
36.105686,0.008849,0.000348,0.008584
36.135677,0.003989,0.002461,0.006547
36.175666,0.009150,0.001775,0.006540
36.205657,0.012840,-0.000046,0.008647
36.245646,0.011220,-0.000307,0.008413
36.275637,0.011763,-0.000168,0.008142
36.305629,0.005997,0.000330,0.005709
36.345618,0.005278,0.000672,0.009325
36.375609,0.006973,-0.001129,0.007620
36.405601,0.008282,0.001557,0.005975
36.445590,0.005173,0.001638,0.008824
36.475581,0.003243,0.000581,0.009742
36.505573,0.004156,0.002053,0.007195
36.545562,0.005119,0.000485,0.006879
36.575553,0.007486,-0.002602,0.007825
36.605545,0.010012,0.002278,0.007476
36.645534,0.008527,0.002800,0.008212
36.675525,0.012349,-0.001143,0.005296
36.705517,0.007908,0.004380,0.006742
36.745506,0.008989,-0.001197,0.008036
36.775497,0.003589,0.002049,0.006486
36.805489,0.006484,-0.000689,0.005357
36.845478,0.005007,0.003558,0.007328
36.875469,0.008040,0.001049,0.009442
36.905461,0.005013,0.000025,0.006541
36.945450,0.008753,0.002013,0.008713
36.975441,0.010799,0.000165,0.008737
37.005433,0.010123,-0.000898,0.007853
37.045421,0.009567,0.000932,0.007770
37.075413,0.005444,0.003760,0.008541
37.105405,0.007548,0.001753,0.007229
37.145394,0.008841,0.003450,0.005243
37.175386,0.008200,0.001281,0.005194
37.205378,0.008811,0.000203,0.005922
37.245366,0.007819,-0.001207,0.005919
37.275358,0.008554,0.000840,0.007987
37.305350,0.005945,-0.002400,0.007484
37.345338,0.006903,-0.001192,0.007417
37.375330,0.007048,0.000540,0.006601
37.405321,0.008846,-0.000089,0.005682
37.445310,0.008394,0.000359,0.006055
37.475302,0.008248,-0.000287,0.006449
37.505293,0.009586,-0.000939,0.005971
37.545282,0.000662,0.001863,0.007849
37.575274,0.006487,-0.002147,0.007255
37.605265,0.006322,0.001631,0.006859
37.645254,0.005382,0.000946,0.005335
37.675246,0.008560,0.000433,0.007608
37.705237,0.012409,-0.001000,0.009591
37.745226,0.012173,-0.000905,0.007666
37.775218,0.010446,-0.000769,0.005460
37.805209,0.009446,0.001423,0.005186
37.845198,0.002940,0.003479,0.005851
37.875189,0.005017,0.003370,0.007727
37.905181,0.004873,0.001966,0.009235
37.945170,0.008650,0.002083,0.005873
37.975161,0.007714,-0.000570,0.006375
38.005153,0.008707,0.000583,0.005169
38.045142,0.007449,0.001055,0.009795
38.075133,0.008472,-0.000414,0.006071
38.105125,0.008755,0.002323,0.006522
38.145114,0.010775,0.001335,0.006364
38.175105,0.010011,0.001918,0.007646
38.205097,0.008437,0.001859,0.007494
38.245086,0.010650,0.001374,0.006213
38.275077,0.012044,0.003635,0.008945
38.305069,0.007519,0.000793,0.007244
38.345057,0.007359,-0.002317,0.005935
38.375049,0.011047,-0.000127,0.008892
38.405041,0.007361,-0.001513,0.008378
38.445029,0.007901,-0.001270,0.005929
38.475021,0.008630,0.000456,0.006228
38.505013,0.008107,-0.002034,0.007884
38.545001,0.009478,-0.000257,0.008937
38.574993,0.005725,0.001369,0.006896
38.604984,0.009184,0.000238,0.005622
38.644973,0.008603,0.000568,0.009863
38.674965,0.006075,0.002642,0.007050
38.704956,0.006727,0.001769,0.008552
38.744945,0.008524,-0.000561,0.008598
38.774937,0.007209,-0.001241,0.007410
38.804928,0.008482,-0.001836,0.006019
38.844917,0.006868,0.002109,0.006905
38.874909,0.007066,0.000358,0.008591
38.904900,0.005707,0.001124,0.009856
38.944889,0.005939,0.001308,0.008801
38.974881,0.010898,0.001837,0.004927
39.004872,0.005086,0.002123,0.008328
39.044861,0.010275,0.000142,0.006673
39.074852,0.002199,-0.000021,0.005261
39.104844,0.007200,0.000445,0.005784
39.144833,0.009304,0.000643,0.009964
39.174824,0.007630,-0.000148,0.005985
39.204816,0.007711,0.002835,0.005527
39.244805,0.008849,0.002203,0.009462
39.274796,0.007701,-0.001305,0.008756
39.304788,0.009941,0.001436,0.006747
39.344777,0.007649,0.001704,0.007669
39.374768,0.006246,-0.001870,0.008542
39.404760,0.003955,-0.000954,0.006237
39.444749,0.006599,0.002754,0.007914
39.474740,0.010978,-0.000097,0.008242
39.504732,0.009699,0.000003,0.007035
39.544720,0.008720,0.002078,0.006798
39.574712,0.008856,-0.000049,0.007362
39.604704,0.005989,-0.000365,0.008595
39.644692,0.005463,-0.000309,0.006656
39.674684,0.007686,0.002064,0.009926
39.704675,0.008697,-0.000267,0.008698
39.744664,0.010632,0.002365,0.007364
39.774656,0.008172,0.000898,0.007915
39.804647,0.007220,0.000916,0.006743
39.844636,0.009336,-0.000787,0.005179
39.874628,0.008978,0.001030,0.007736
39.904619,0.007456,-0.001413,0.005855
39.944608,0.008548,0.000316,0.004372
39.974600,0.008554,-0.000182,0.006364
40.004591,0.010433,-0.002926,0.007538
40.044580,0.007787,0.000754,0.006134
40.074571,0.005337,0.002208,0.005918
40.104563,0.004900,-0.000756,0.009872
40.144552,0.003536,0.001049,0.006410
40.174543,0.004979,0.003529,0.005604
40.204535,0.008097,0.000176,0.009287
40.244524,0.010637,0.000496,0.008107
40.274515,0.013191,0.000760,0.007628
40.304507,0.011041,0.003128,0.007831
40.344496,0.009962,-0.001673,0.008626
40.374487,0.008443,0.002128,0.006462
40.404479,0.008970,0.001696,0.006583
40.444468,0.007261,0.002682,0.007108
40.474459,0.006362,0.000902,0.010944
40.504451,0.005652,0.000552,0.008844
40.544439,0.008611,0.001766,0.009583
40.574431,0.006224,0.001684,0.007279
40.604423,0.006197,0.000633,0.006866
40.644411,0.006250,-0.000863,0.004836
40.674403,0.007697,0.001334,0.005608
40.704394,0.008751,0.000178,0.007818
40.744383,0.012015,0.002125,0.006931
40.774375,0.009042,0.001838,0.005720
40.804366,0.012807,0.002135,0.006856
40.844355,0.014055,-0.002852,0.009872
40.874347,0.006140,0.001766,0.004911
40.904338,0.006008,0.000354,0.006074
40.944327,0.002743,0.000847,0.007806
40.974319,0.005168,0.001406,0.007743
41.004310,0.008770,-0.000373,0.007152
41.044299,0.009125,0.000359,0.006612
41.074290,0.004974,0.003800,0.009823
41.104282,0.007807,0.001243,0.007830
41.144271,0.007512,0.003018,0.007672
41.174262,0.007987,0.004239,0.007750
41.204254,0.008412,0.001938,0.005994
41.244243,0.006507,-0.000472,0.005060
41.274234,0.010119,-0.001243,0.005834
41.304226,0.009034,0.000936,0.008919
41.344214,0.006848,0.000322,0.006249
41.374206,0.004480,-0.000675,0.005875
41.404198,0.007986,0.002928,0.009714
41.444186,0.006641,0.000231,0.007643
41.474178,0.007184,-0.003587,0.005790
41.504169,0.008759,0.002210,0.004545
41.544158,0.009291,0.001133,0.009021
41.574150,0.008953,0.000957,0.006736
41.604141,0.008082,0.000746,0.007703
41.644130,0.004886,0.004149,0.006706
41.674122,0.008445,-0.003976,0.008101
41.704113,0.008902,0.001192,0.009326
41.744102,0.006619,0.000514,0.006469
41.774094,0.006981,0.000827,0.006144
41.804085,0.010086,0.002729,0.006910
41.844074,0.006372,0.004198,0.006184
41.874065,0.005281,0.000932,0.007440
41.904057,0.005686,-0.000118,0.008601
41.944046,0.009318,0.001141,0.008294
41.974037,0.009460,-0.000612,0.008238
42.004029,0.007364,-0.000653,0.003857
42.044018,0.012240,-0.002719,0.008332
42.074009,0.009061,0.001878,0.007738
42.104001,0.009525,0.000184,0.006426
42.143989,0.007952,-0.001147,0.006549
42.173981,0.009201,0.000080,0.009421
42.203973,0.010666,0.000679,0.005507
42.243961,0.008326,-0.001739,0.008476
42.273953,0.007328,-0.001018,0.006022
42.303944,0.011032,-0.001321,0.005893
42.343933,0.010067,-0.000183,0.005392
42.373925,0.008549,0.001336,0.007732
42.403916,0.006609,-0.001940,0.009039
42.443905,0.004151,0.001287,0.007044
42.473897,0.004193,0.001133,0.006232
42.503888,0.008097,-0.001628,0.008970
42.543877,0.006689,0.000272,0.007883
42.573868,0.009595,0.001522,0.007709
42.603860,0.005033,0.001219,0.006276
42.643849,0.005915,0.001093,0.009349
42.673840,0.005902,0.000031,0.008932
42.703832,0.006413,0.001160,0.005585
42.743821,0.007207,0.001791,0.008709
42.773812,0.007205,0.001935,0.007641
42.803804,0.008995,0.002072,0.008693
42.843792,0.008253,0.001992,0.007048
42.873784,0.012135,-0.003876,0.009089
42.903776,0.004171,0.003297,0.008461
42.943764,0.010251,0.001145,0.007108
42.973756,0.008909,0.000277,0.007401
43.003747,0.005884,0.002529,0.009011
43.043736,0.006922,0.000323,0.007054
43.073728,0.007815,-0.001310,0.004530
43.103719,0.010570,0.002167,0.007505
43.143711,0.007156,0.001857,0.008756
43.173703,0.004591,-0.000455,0.007337
43.203694,0.001841,0.002475,0.003770
43.243683,0.004307,-0.000315,0.008336
43.273674,0.007698,0.002625,0.006177
43.303666,0.007476,0.001451,0.006064
43.343655,0.010903,-0.000132,0.006786
43.373646,0.009162,0.000944,0.008903
43.403638,0.009421,0.000136,0.006587
43.443627,0.010512,-0.001101,0.006131
43.473618,0.007403,0.000720,0.007872
43.503610,0.009228,-0.000803,0.008661
43.543598,0.006274,-0.000352,0.006415
43.573590,0.011182,0.002770,0.005196
43.603582,0.006165,0.000709,0.007151
43.643570,0.011502,0.000459,0.006478
43.673562,0.004894,-0.000203,0.004764
43.703553,0.010509,-0.000201,0.007202
43.743542,0.006914,-0.000697,0.009639
43.773534,0.006673,0.000499,0.005643
43.803525,0.007776,0.000344,0.007860
43.843514,0.011110,-0.001427,0.007210
43.873506,0.010183,-0.000276,0.009903
43.903497,0.010962,0.001463,0.006738
43.943486,0.007538,0.001397,0.007866
43.973477,0.003204,0.001136,0.008211
44.003469,0.005189,0.003585,0.006605
44.043458,0.004202,0.001654,0.010084
44.073449,0.005205,0.001695,0.006248
44.103441,0.008735,0.000461,0.008669
44.143426,0.007078,0.000170,0.008352
44.173417,0.007316,0.001686,0.007054
44.203409,0.003800,0.000419,0.006916
44.243397,0.008193,0.000982,0.007916
44.273389,0.007510,0.000041,0.006898
44.303381,0.008196,-0.000530,0.007668
44.343369,0.004342,0.003397,0.006152
44.373361,0.008062,0.000800,0.006893
44.403352,0.004398,0.002313,0.005104
44.443341,0.009911,0.003020,0.006049
44.473333,0.008297,-0.000800,0.009760
44.503324,0.005584,0.001089,0.006137
44.543313,0.008578,0.001295,0.007844
44.573305,0.010068,0.000382,0.008305
44.603296,0.013018,-0.002806,0.008716
44.643285,0.009766,-0.000201,0.004259
44.673276,0.007564,-0.001699,0.009851
44.703268,0.004315,0.001529,0.007104
44.743257,0.004739,-0.001446,0.007401
44.773248,0.007197,-0.000399,0.007782
44.803240,0.009000,0.002306,0.008847
44.843229,0.007099,-0.002361,0.007020
44.873220,0.008633,-0.000368,0.006298
44.903212,0.008859,0.000167,0.007140
44.943200,0.005047,-0.000210,0.007157
44.973192,0.008929,0.002253,0.005252
45.003184,0.006229,0.000205,0.005429
45.043172,0.008294,0.000929,0.007004
45.073164,0.011620,0.001178,0.007508
45.103155,0.009589,-0.000850,0.008188
45.143151,0.006627,0.001404,0.006920
45.173143,0.002692,0.000370,0.008994
45.203134,0.007801,0.000009,0.005942
45.243123,0.006436,0.001873,0.006120
45.273114,0.004840,0.000632,0.007619
45.303106,0.008427,-0.001500,0.008066
45.343095,0.011112,0.000947,0.006212
45.373086,0.011966,-0.002870,0.005157
45.403078,0.009396,-0.002380,0.008952
45.443067,0.006742,0.001874,0.006635
45.473058,0.007060,0.000183,0.007698
45.503050,0.006355,0.003437,0.004899
45.543038,0.008368,0.001796,0.008391
45.573030,0.008470,0.000287,0.007446
45.603022,0.008560,0.001759,0.005009
45.643010,0.005575,-0.000125,0.005490
45.673002,0.005416,0.001492,0.006592
45.702993,0.006253,0.002212,0.006574
45.742982,0.009301,0.001809,0.006817
45.772974,0.008609,-0.000140,0.009686
45.802965,0.007737,0.001879,0.008695
45.842954,0.014353,-0.001600,0.007640
45.872945,0.011782,0.000341,0.005680
45.902937,0.010783,-0.002508,0.005839
45.942926,0.008296,-0.001704,0.005988
45.972917,0.010377,0.001509,0.009531
46.002909,0.007849,0.000390,0.008817
46.042898,0.006406,-0.001289,0.007884
46.072889,0.009763,-0.001115,0.005023
46.102881,0.010817,-0.001111,0.005924
46.142863,0.008524,0.000746,0.009529
46.172855,0.008858,0.002250,0.007148
46.202846,0.007955,0.000548,0.005785
46.242835,0.003119,-0.000540,0.006923
46.272827,0.003515,0.001287,0.007238
46.302818,0.008055,0.001216,0.006624
46.342807,0.008467,0.000621,0.006417
46.372799,0.013963,0.002350,0.007813
46.402790,0.010966,0.001790,0.010428
46.442779,0.008650,0.001688,0.008785
46.472770,0.004689,0.001393,0.003854
46.502762,0.007718,0.002235,0.007999
46.542751,0.006173,0.004094,0.008754
46.572742,0.008995,0.001153,0.006343
46.602734,0.005804,0.002833,0.008907
46.642722,0.011332,-0.003027,0.007011
46.672714,0.003410,0.001114,0.006028
46.702706,0.007669,-0.001341,0.007697
46.742694,0.007058,-0.001586,0.009069
46.772686,0.008636,0.000237,0.005914
46.802677,0.007278,0.002200,0.006207
46.842666,0.011047,0.000070,0.008615
46.872658,0.011849,-0.000648,0.007375
46.902649,0.008469,0.001581,0.006270
46.942638,0.007988,0.001826,0.006715
46.972629,0.001994,0.000663,0.006544
47.002621,0.000530,0.001168,0.007745
47.042610,0.006574,-0.000936,0.006622
47.072601,0.006728,0.000980,0.006002
47.102593,0.007301,-0.000697,0.007125
47.142581,0.010199,-0.000290,0.007167
47.172573,0.007386,0.002031,0.005610
47.202565,0.006339,-0.001133,0.010435
47.242553,0.005728,0.001031,0.006462
47.272545,0.007513,0.002276,0.007549
47.302536,0.008752,-0.001868,0.007538
47.342525,0.011151,-0.000530,0.006467
47.372517,0.009425,0.000854,0.008330
47.402508,0.006892,-0.000590,0.006652
47.442497,0.009955,0.000863,0.008964
47.472488,0.007762,-0.000215,0.009454
47.502480,0.008257,0.001279,0.008503
47.542469,0.005211,0.002292,0.005051
47.572460,0.009613,0.000724,0.007885
47.602452,0.008407,0.000565,0.007574
47.642440,0.010745,0.000586,0.005059
47.672432,0.007914,-0.001942,0.006119
47.702424,0.007932,0.000486,0.010619
47.742412,0.004994,0.002357,0.006706
47.772404,0.008559,-0.000205,0.007111
47.802395,0.009292,-0.000396,0.006636
47.842384,0.011625,0.000664,0.010044
47.872376,0.011026,-0.002545,0.007500
47.902367,0.008073,-0.000713,0.008813
47.942356,0.004100,0.004014,0.007189
47.972347,0.004249,0.003312,0.006821
48.002339,0.003771,0.000978,0.006916
48.042328,0.008131,0.004513,0.006366
48.072319,0.008135,-0.000291,0.007342
48.102311,0.012318,0.002280,0.005008
48.142300,0.009473,-0.001457,0.004218
48.172292,-0.000432,0.003775,0.008646
48.212281,0.009330,-0.000032,0.006539
48.242272,0.007095,-0.001595,0.005268
48.272264,0.009141,0.000452,0.006094
48.312252,0.007155,0.000223,0.007790
48.342244,0.006902,-0.000482,0.005892
48.372236,0.008237,-0.000527,0.007576
48.412224,0.009272,0.001753,0.009940
48.442216,0.007568,-0.000117,0.005966
48.472207,0.007010,-0.000459,0.006326
48.512196,0.002749,0.000044,0.006332
48.542188,0.007550,-0.001823,0.008938
48.572179,0.009306,-0.000151,0.008418
48.612168,0.009778,-0.002201,0.007112
48.642159,0.011131,0.001158,0.008923
48.672151,0.005901,-0.000562,0.007600
48.712140,0.006653,0.000610,0.007506
48.742131,0.007297,0.000739,0.005835
48.772123,0.008648,-0.002091,0.005943
48.812111,0.011183,-0.002147,0.005783
48.842103,0.010913,-0.000445,0.004850
48.872095,0.005167,-0.002144,0.006812
48.912083,0.006709,-0.001420,0.007344
48.942075,0.006590,0.000068,0.007054
48.972066,0.008193,0.001288,0.006183
49.012055,0.008769,0.000870,0.007094
49.042047,0.006508,-0.000660,0.009281
49.072038,0.009510,-0.000464,0.006838
49.112027,0.007283,0.000785,0.008774
49.142017,0.009592,0.000907,0.008685
49.172009,0.006800,0.001612,0.008605
49.211998,0.007879,-0.000412,0.007296
49.241989,0.005250,0.002279,0.009014
49.271981,0.005554,0.001350,0.008483
49.311969,0.007104,0.001044,0.006149
49.341961,0.010268,-0.000767,0.009907
49.371952,0.009148,0.000919,0.009655
49.411941,0.008427,-0.000140,0.009814
49.441933,0.007044,-0.001785,0.006812
49.471924,0.006496,-0.000674,0.007075
49.511913,0.007638,-0.000442,0.009696
49.541904,0.006394,-0.000965,0.007516
49.571896,0.006371,-0.000318,0.007927
49.611885,0.010987,-0.001745,0.007175
49.641876,0.008481,0.001658,0.008498
49.671868,0.007632,0.000919,0.006792
49.711856,0.004940,-0.001367,0.006233
49.741848,0.007504,0.001237,0.005536
49.771839,0.006274,0.000247,0.008108
49.811828,0.007884,-0.001829,0.009092
49.841820,0.008321,0.000090,0.009300
49.871811,0.009613,0.001872,0.008295
49.911800,0.009568,-0.000095,0.006981
49.941792,0.009203,-0.000959,0.004429
49.971783,0.006279,0.000513,0.007670
50.011772,0.004626,0.001244,0.008034
50.041763,0.006410,0.001066,0.006319
50.071755,0.007816,0.000079,0.009552
50.111744,0.009243,0.003754,0.008156
50.141735,0.009905,0.002036,0.007858
50.171727,0.008728,0.003427,0.006146
50.211715,0.004022,0.001340,0.006096
50.241707,0.006086,0.001209,0.009665
50.271698,0.007862,0.000418,0.007823
50.311687,0.010491,0.002211,0.006424
50.341679,0.008550,0.000839,0.005159
50.371670,0.010096,-0.001052,0.008109
50.411659,0.004961,-0.000313,0.007543
50.441650,0.007686,-0.001344,0.008369
50.471642,0.000320,0.002276,0.007988
50.511631,0.008128,0.000113,0.007805
50.541622,0.007410,0.001003,0.005700
50.571614,0.010060,-0.000021,0.006674
50.611602,0.008160,-0.001639,0.007709
50.641594,0.009637,0.002837,0.006526
50.671585,0.009198,-0.002068,0.008156
50.711574,0.010348,-0.001183,0.010938
50.741566,0.006661,0.001269,0.007587
50.771557,0.007286,0.002271,0.005350
50.811546,0.007050,0.001537,0.006480
50.841537,0.007548,0.001775,0.009910
50.871529,0.008548,0.000773,0.007578
50.911518,0.009213,0.003384,0.005180
50.941509,0.008594,0.002334,0.007707
50.971501,0.006030,0.000933,0.007670
51.011489,0.005336,0.001321,0.006829
51.041481,0.006782,0.001030,0.008944
51.071472,0.009425,0.001795,0.009679
51.111461,0.006950,0.000205,0.005927
51.141457,0.007410,-0.001522,0.006528
51.171448,0.009286,0.002456,0.005426
51.211437,0.011477,0.003062,0.008532
51.241428,0.004029,0.001756,0.006668
51.271420,0.008982,0.000176,0.007054
51.311409,0.007330,0.001635,0.006702
51.341400,0.007536,0.001181,0.008776
51.371392,0.008040,-0.000549,0.007200
51.411380,0.010107,0.002975,0.005010
51.441372,0.010052,0.002342,0.005926
51.471363,0.007840,0.001478,0.009097
51.511352,0.007665,0.002298,0.008792
51.541344,0.002312,0.002041,0.006787
51.571335,0.002417,0.002888,0.006343
51.611324,0.005090,0.000819,0.005612
51.641315,0.007110,0.001253,0.005140
51.671307,0.007147,-0.002311,0.008367
51.711296,0.008179,-0.003808,0.009478
51.741287,0.005177,0.001956,0.006565
51.771279,0.006110,-0.001844,0.007349
51.811267,0.005030,0.000564,0.008017
51.841259,0.008043,0.000337,0.008287
51.871250,0.006678,0.001197,0.005185
51.911239,0.011269,0.000190,0.007574
51.941231,0.006567,0.001870,0.008534
51.971222,0.012267,0.000001,0.005888
52.011211,0.005675,0.002333,0.008839
52.041202,0.008842,-0.000656,0.006743
52.071194,0.007367,-0.000757,0.010671
52.111183,0.007159,0.002842,0.006164
52.141170,0.007942,-0.001386,0.006240
52.171161,0.010441,0.001371,0.009674
52.211150,0.010509,-0.002207,0.007052
52.241142,0.010129,0.000960,0.005449
52.271133,0.009683,0.001053,0.008657
52.311122,0.004364,0.000580,0.008532
52.341113,0.004836,-0.000373,0.007278
52.371105,0.005191,0.001358,0.007199
52.411094,0.008261,-0.000633,0.005869
52.441085,0.009709,-0.001491,0.008820
52.471077,0.006863,0.000695,0.004852
52.511065,0.009754,-0.000839,0.007016
52.541057,0.009502,0.001097,0.009938
52.571048,0.005191,0.004224,0.006546
52.611037,0.008079,0.000354,0.006397
52.641029,0.007575,0.001192,0.006587
52.671020,0.009213,-0.003013,0.010778
52.711009,0.009561,-0.001735,0.006831
52.741000,0.009704,-0.000017,0.008629
52.770992,0.004548,0.000319,0.007241
52.810980,0.010552,-0.001150,0.007136
52.840972,0.010990,0.001009,0.006074
52.870964,0.010297,0.000615,0.005319
52.910952,0.006098,-0.001185,0.009652
52.940944,0.007911,0.001655,0.004197
52.970935,0.006020,0.002506,0.005805
53.010924,0.008185,-0.000213,0.007166
53.040915,0.006412,0.002080,0.009584
53.070907,0.004777,0.002254,0.004983
53.110896,0.005112,0.000310,0.006466
53.140886,0.005389,0.002707,0.007150
53.170878,0.007358,0.001111,0.005930
53.210866,0.009126,0.001220,0.007917
53.240858,0.009336,-0.001729,0.007807
53.270849,0.007551,0.000093,0.008924
53.310838,0.008996,-0.000146,0.004923
53.340829,0.012169,0.002169,0.007875
53.370821,0.009804,-0.000279,0.005975
53.410810,0.008906,0.000473,0.008263
53.440801,0.008558,0.001213,0.007404
53.470793,0.006462,0.002454,0.005769
53.510781,0.008976,0.000382,0.007564
53.540773,0.004021,0.001419,0.006144
53.570764,0.007549,0.001103,0.005447
53.610753,0.005879,0.000779,0.007830
53.640745,0.005156,0.001068,0.006742
53.670736,0.011133,-0.002042,0.007180
53.710725,0.009647,-0.001254,0.006300
53.740716,0.009518,0.000711,0.010574
53.770708,0.007727,0.002019,0.009060
53.810696,0.006563,0.000772,0.005866
53.840688,0.002596,0.000605,0.007065
53.870679,0.002199,0.000442,0.007036
53.910668,0.005275,-0.000551,0.005925
53.940660,0.007129,0.001963,0.007915
53.970651,0.011390,-0.001471,0.007474
54.010640,0.008757,-0.002565,0.007914
54.040631,0.005002,0.003674,0.005577
54.070623,0.005998,0.003071,0.007393
54.110611,0.007523,0.002052,0.006962
54.140607,0.013242,0.002651,0.005001
54.170598,0.013669,-0.000887,0.004758
54.210587,0.013556,-0.000973,0.008201
54.240579,0.007649,0.000456,0.010291
54.270570,0.006915,-0.002709,0.007831
54.310559,-0.003419,0.001214,0.008524
54.340550,0.002006,0.000044,0.007617
54.370542,0.006543,0.001126,0.008803
54.410530,0.010677,0.002688,0.005651
54.440522,0.010727,0.000542,0.008088
54.470513,0.010119,0.000092,0.007860
54.510502,0.006942,0.000370,0.006724
54.540494,0.004092,-0.002782,0.006308
54.570485,0.005072,0.001946,0.007739
54.610474,0.001402,0.001466,0.007621
54.640465,0.004333,-0.000464,0.006941
54.670457,0.006902,0.000161,0.009247
54.710445,0.009878,0.000409,0.007382
54.740437,0.010433,0.002254,0.008955
54.770428,0.008281,-0.000279,0.008566
54.810417,0.004964,0.000639,0.005279
54.840408,0.006983,0.000046,0.008422
54.870400,0.005239,0.002268,0.006400
54.910389,0.007518,0.002330,0.008641
54.940380,0.007894,-0.000378,0.011942
54.970372,0.008241,-0.002862,0.006075
55.010360,0.004978,0.002384,0.006392
55.040352,0.010019,0.000499,0.008163
55.070343,0.002344,0.000927,0.008616
55.110332,0.008927,-0.002649,0.008971
55.140321,0.008825,0.000928,0.004620
55.170312,0.008627,0.000568,0.004919
55.210301,0.010187,-0.001652,0.005975
55.240292,0.009678,0.001018,0.005168
55.270284,0.008823,-0.000089,0.009786
55.310272,0.010545,-0.000928,0.009959
55.340264,0.006255,0.000680,0.007590
55.370255,0.006592,0.000697,0.007239
55.410244,0.000134,0.002674,0.010276
55.440235,0.005984,0.002221,0.009439
55.470227,0.007147,0.001985,0.008001
55.510216,0.005536,0.001488,0.006872
55.540207,0.009311,0.000584,0.005090
55.570199,0.007203,-0.005320,0.008597
55.610187,0.008036,-0.002531,0.005375
55.640179,0.004375,-0.001588,0.009132
55.670170,0.007499,0.002569,0.006110
55.710159,0.010739,0.004932,0.006107
55.740150,0.007997,0.003771,0.007531
55.770142,0.002449,0.002718,0.008554
55.810131,0.005742,0.005099,0.005822
55.840122,0.007475,-0.000366,0.006554
55.870114,0.013718,-0.000116,0.007690
55.910102,0.005963,0.001916,0.009660
55.940094,0.009269,-0.000445,0.007387
55.970085,0.006999,-0.000311,0.006480
56.010074,0.006414,-0.001669,0.007428
56.040065,0.005180,-0.001540,0.008691
56.070057,0.010470,-0.001636,0.008786
56.110045,0.011143,-0.002806,0.006919
56.140037,0.011515,-0.000795,0.006922
56.170028,0.006816,-0.000793,0.004990
56.210017,0.004162,0.000521,0.006966
56.240009,0.002360,0.001899,0.007401
56.270000,0.004138,0.002361,0.006585
56.309989,0.009555,0.000204,0.007270
56.339980,0.007421,0.003331,0.008497
56.369972,0.006972,-0.000583,0.009198
56.409960,0.010127,0.000471,0.007917
56.439952,0.010695,0.000537,0.006656
56.469943,0.011025,-0.000389,0.005290
56.509932,0.007862,-0.000446,0.008275
56.539923,0.008105,0.001578,0.006381
56.569915,0.005821,-0.000365,0.007213
56.609904,0.006401,-0.000580,0.005915
56.639895,0.006405,-0.000433,0.006457
56.669887,0.010947,0.000383,0.005212
56.709875,0.010295,0.002383,0.004942
56.739867,0.009291,0.000226,0.007034
56.769858,0.004193,0.000629,0.005503
56.809847,0.006039,0.000317,0.004996
56.839838,0.007419,-0.000785,0.008496
56.869830,0.013762,-0.000210,0.009615
56.909818,0.009680,0.000590,0.004315
56.939810,0.004942,-0.001413,0.007174
56.969801,0.008764,0.001244,0.006605
57.009790,-0.000415,0.003708,0.006727
57.039782,0.001919,-0.001670,0.006878
57.069773,-0.002369,0.003532,0.007677
57.109762,-0.004773,0.003584,0.006297
57.139753,0.005168,0.004653,0.009147
57.169745,0.010440,0.001817,0.007946
57.209733,0.017609,-0.000543,0.009505
57.239725,0.013438,-0.000153,0.005333
57.269716,0.008118,0.000192,0.007534
57.309705,0.006383,-0.000707,0.008774
57.339696,0.000672,0.002425,0.006201
57.369688,0.004945,0.001862,0.007680
57.409677,0.002728,0.001528,0.005773
57.439668,0.006944,0.001033,0.008809
57.469660,0.006755,0.001201,0.008689
57.509648,0.009133,-0.002075,0.006811
57.539640,0.004950,-0.001721,0.008156
57.569631,0.011957,-0.002208,0.005853
57.609620,0.010771,-0.000489,0.007307
57.639611,0.008051,-0.000727,0.005726
57.669603,0.008586,-0.000311,0.008818
57.709591,0.005595,0.000032,0.006342
57.739583,0.015164,-0.002548,0.008127
57.769574,0.015552,-0.002402,0.008435
57.809563,0.014640,-0.003701,0.007868
57.839554,0.009162,0.003212,0.009772
57.869546,0.003625,0.003432,0.007100
57.909535,0.000450,0.002651,0.005642
57.939526,0.000746,0.000294,0.008636
57.969518,0.003910,0.001264,0.007137
58.009506,0.007046,0.001023,0.005960
58.039498,0.010417,-0.001696,0.008725
58.069489,0.009633,-0.000592,0.007956
58.109478,0.008774,0.000357,0.007808
58.139468,0.008484,0.000184,0.008222
58.169460,0.002279,0.004024,0.006624
58.209448,0.007491,0.001322,0.007760
58.239440,-0.001746,0.006475,0.006699
58.269431,0.001655,0.000932,0.009017
58.309420,0.013648,-0.003697,0.007125
58.339411,0.007844,0.003106,0.009660
58.369403,0.008517,-0.001372,0.006616
58.409392,0.004368,-0.000067,0.006069
58.439383,0.007087,0.001381,0.007231
58.469375,0.008553,-0.004674,0.007587
58.509363,0.006146,-0.001784,0.008050
58.539355,0.003481,-0.001514,0.008623
58.569346,0.008842,-0.000895,0.007482
58.609335,0.012090,-0.001510,0.006655
58.639326,0.013966,0.000399,0.008262
58.669318,0.014588,-0.001160,0.006611
58.709306,0.006447,0.000231,0.008061
58.739298,-0.000643,0.003145,0.008928
58.769289,0.003304,-0.000440,0.006742
58.809278,0.002913,0.000476,0.006425
58.839269,0.009860,0.003237,0.007350
58.869261,0.014040,-0.001286,0.006601
58.909250,0.013471,0.002331,0.007628
58.939241,0.010733,0.003472,0.005535
58.969232,0.006763,0.004134,0.005967
59.009221,0.003156,0.005635,0.004991
59.039213,0.006828,0.001551,0.007377
59.069204,0.004481,0.001541,0.006046
59.109193,0.010460,0.001244,0.009462
59.139185,0.008331,-0.000581,0.006392
59.169177,0.003854,0.002678,0.008593
59.209165,0.004748,0.002602,0.005117
59.239157,0.002131,0.004418,0.008704
59.269148,0.000410,0.000362,0.006392
59.309137,0.002451,0.000242,0.008674
59.339128,0.011869,0.001786,0.007350
59.369120,0.012680,-0.003502,0.008199
59.409108,0.017503,-0.001396,0.006570
59.439100,0.014997,0.000747,0.008089
59.469091,0.008980,-0.000038,0.007706
59.509080,0.002946,0.001277,0.007085
59.539071,0.002280,0.001056,0.006712
59.569063,0.005801,-0.002536,0.006886
59.609052,0.008232,-0.000084,0.008298
59.639043,0.010987,0.000961,0.006983
59.669035,0.006450,0.002180,0.008038
59.709023,0.005720,0.001852,0.009345
59.739015,0.006080,0.000273,0.008525
59.769006,0.010052,0.000325,0.004987
59.808995,0.007795,0.001566,0.006331
59.838986,0.008908,0.000735,0.008897
59.868978,0.012886,0.001009,0.008575
59.908966,0.004838,0.000810,0.006846
59.938958,0.008940,-0.002066,0.006299
59.968949,0.009830,-0.000618,0.009391
60.008938,0.004973,-0.001037,0.007194
60.038929,0.006646,-0.001561,0.006759
60.068921,0.009652,0.001034,0.007886
60.108909,0.011001,0.000868,0.005959
60.138901,0.005929,-0.001454,0.007887
60.168892,0.008956,0.000254,0.007750
60.208881,0.003135,0.000699,0.008962
60.238873,0.003568,0.001197,0.007698
60.278861,0.006576,-0.000079,0.007218
60.308853,0.008771,0.002288,0.008453
60.338844,0.008620,-0.000358,0.007879
60.378833,0.010506,-0.000273,0.008249
60.408824,0.007628,0.000324,0.007617
60.438816,0.007550,-0.000094,0.006237
60.478804,0.006937,0.000531,0.007984
60.508796,0.009678,0.000243,0.008823
60.538787,0.007809,-0.000250,0.007281
60.578776,0.012124,0.000151,0.008818
60.608767,0.011410,-0.000369,0.008968
60.638759,0.004517,0.001634,0.006083
60.668750,0.009239,-0.003159,0.008723
60.708739,0.008458,0.003297,0.008444
60.738730,0.007327,0.000497,0.006387
60.768722,0.007244,-0.003442,0.007799
60.808711,0.011181,0.002234,0.009168
60.838702,0.009104,0.002007,0.007088
60.878691,0.012500,-0.000844,0.006880
60.908682,0.007619,-0.001476,0.010794
60.938674,0.003774,0.005239,0.006132
60.978662,0.007585,0.003382,0.005004
61.008654,0.006763,-0.000014,0.006018
61.038645,0.007590,0.000196,0.007646
61.078634,0.011011,0.000440,0.008672
61.108625,0.008050,0.000861,0.006863
61.138617,0.008919,-0.000752,0.006609
61.178605,0.007269,0.001966,0.008535
61.208597,0.006090,0.003120,0.005548
61.238588,0.007154,0.002433,0.004199
61.278577,0.005768,0.000099,0.006436
61.308568,0.005056,0.001010,0.008738
61.338560,0.007076,-0.000292,0.007588
61.378548,0.002764,-0.001448,0.008847
61.408540,0.009066,-0.000009,0.008045
61.438531,0.010935,0.001142,0.007069
61.478520,0.009390,0.001409,0.004971
61.508511,0.008789,-0.000902,0.007291
61.538503,0.008760,-0.002325,0.006658
61.578492,0.006027,0.000145,0.006008
61.608483,0.007152,0.000393,0.006862
61.638474,0.010029,0.004352,0.006437
61.678463,0.008016,0.001646,0.006493
61.708455,0.004926,0.003036,0.006052
61.738446,0.006974,0.000713,0.008907
61.778435,0.011179,0.000085,0.008157
61.808426,0.008606,-0.001605,0.005939
61.838418,0.009048,-0.000529,0.006173
61.878406,0.004942,0.001312,0.007101
61.908398,0.006508,0.001141,0.008824
61.938389,0.007170,0.002096,0.005031
61.978378,0.009042,0.002693,0.007224
62.008369,0.006377,0.001774,0.004947
62.038361,0.009713,-0.000183,0.007576
62.078349,0.007129,0.001650,0.004940
62.108341,0.008619,-0.001586,0.007902
62.138335,0.007640,-0.001027,0.007692
62.178324,0.006715,-0.000594,0.005925
62.208315,0.011513,0.000787,0.006210
62.238307,0.009270,-0.000653,0.008155
62.278295,0.010187,0.001830,0.006356
62.308287,0.008290,0.003370,0.005513
62.338278,0.006250,-0.000516,0.007446
62.378267,0.002752,0.002059,0.007406
62.408258,0.001879,-0.000441,0.007158
62.438250,0.006275,0.001041,0.006792
62.478239,0.009192,-0.001447,0.010556
62.508230,0.008135,0.000728,0.006593
62.538221,0.009584,-0.002376,0.006227
62.578210,0.010594,-0.001417,0.008047
62.608202,0.006156,0.000863,0.009897
62.638193,0.009187,-0.001784,0.007679
62.678182,0.006772,0.000497,0.008464
62.708173,0.007845,0.000499,0.006645
62.738165,0.005834,0.001178,0.009248
62.778153,0.011020,-0.000830,0.006817
62.808145,0.004042,0.003583,0.007617
62.838136,0.007792,-0.000972,0.008838
62.878125,0.008531,-0.000507,0.006809
62.908116,0.006232,0.000944,0.007641
62.938108,0.009552,-0.000018,0.008167
62.978096,0.011387,-0.000394,0.008087
63.008088,0.010169,0.000063,0.007769
63.038079,0.008245,-0.001629,0.007774
63.078068,0.009582,0.000570,0.007844
63.108059,0.003193,-0.002166,0.007088
63.138052,0.006226,0.001308,0.006887
63.178040,0.005325,0.001826,0.007594
63.208032,0.009613,-0.001652,0.008392
63.238023,0.008192,0.001132,0.005584
63.278012,0.008695,-0.001323,0.005645
63.308003,0.007245,-0.001082,0.007905
63.337995,0.006779,0.002872,0.007115
63.377983,0.009962,0.001839,0.006267
63.407975,0.007667,-0.000479,0.007264
63.437966,0.011869,0.000689,0.006105
63.477955,0.007263,-0.002072,0.007279
63.507946,0.000883,0.000196,0.005900
63.537938,0.006481,-0.001784,0.007570
63.577926,0.006655,0.000605,0.006879
63.607918,0.008462,-0.001266,0.007278
63.637909,0.006445,0.001040,0.007389
63.677898,0.011142,0.000606,0.007273
63.707889,0.009500,0.000723,0.007789
63.737881,0.013298,0.000624,0.006828
63.777870,0.009161,0.001836,0.009403
63.807861,0.005796,0.002192,0.006148
63.837852,0.003609,0.001709,0.006681
63.877841,0.005714,0.002800,0.005371
63.907833,0.001596,0.000336,0.010766
63.937824,0.003354,0.002128,0.008243
63.977813,0.008787,-0.001299,0.007113
64.007804,0.011007,0.000514,0.009650
64.037795,0.008723,-0.000291,0.009521
64.077784,0.011871,-0.000947,0.008084
64.107776,0.008629,-0.000310,0.004167
64.137767,0.008149,-0.002549,0.007252
64.177752,0.008968,0.000376,0.007860
64.207743,0.009799,0.000933,0.005305
64.237735,0.001067,0.000871,0.005875
64.277723,0.006653,0.000868,0.008698
64.307715,0.007486,0.000390,0.005111
64.337706,0.008091,0.003358,0.005977
64.377695,0.007887,0.001742,0.008293
64.407686,0.006374,-0.001475,0.007113
64.437678,0.010373,-0.000417,0.006200
64.477666,0.009249,0.001587,0.007178
64.507658,0.008154,-0.000760,0.008113
64.537649,0.004111,0.004140,0.006293
64.577638,0.004515,0.000968,0.008898
64.607629,0.006200,0.002064,0.007074
64.637621,0.006771,0.001618,0.004919
64.677609,0.007556,0.000398,0.007773
64.707601,0.005434,0.001124,0.006042
64.737592,0.007649,-0.001677,0.007497
64.777581,0.007558,0.000590,0.009037
64.807572,0.010074,0.002122,0.007562
64.837564,0.011536,0.002613,0.007238
64.877552,0.007061,0.000728,0.007107
64.907544,0.011621,0.001213,0.008690
64.937535,0.005373,-0.002396,0.006564
64.977524,0.003810,-0.000892,0.008847
65.007515,0.005243,0.003374,0.007638
65.037507,0.005562,0.000190,0.007153
65.077495,0.006347,-0.002038,0.008850
65.107487,0.009395,0.001064,0.007865
65.137478,0.010402,-0.001381,0.006796
65.177467,0.009988,-0.001427,0.007322
65.207458,0.010952,0.000819,0.006107
65.237450,0.006265,0.001998,0.008103
65.277438,0.003487,-0.000739,0.006095
65.307430,0.005164,0.002960,0.007344
65.337421,0.004424,0.002371,0.006617
65.377410,0.004254,-0.000323,0.007067
65.407401,0.003096,-0.001840,0.006967
65.437393,0.002823,0.000103,0.006268
65.477381,0.004183,0.001583,0.006077
65.507373,0.007478,-0.001583,0.007698
65.537364,0.006045,0.002635,0.005157
65.577353,0.006524,0.000301,0.004490
65.607344,0.005436,0.000328,0.010018
65.637336,0.010058,-0.001286,0.007444
65.677324,0.004036,-0.001761,0.008661
65.707316,0.006398,-0.000723,0.010883
65.737307,0.006853,0.000468,0.010257
65.777296,0.009677,0.000250,0.007074
65.807287,0.007027,-0.001566,0.008371
65.837279,0.009978,0.000748,0.010324
65.877267,0.013311,0.000481,0.007361
65.907259,0.008731,-0.002322,0.007751
65.937250,0.005143,-0.000961,0.008028
65.977239,0.004025,0.002378,0.009689
66.007230,0.004457,0.001344,0.005005
66.037222,0.007403,0.002111,0.006453
66.077210,0.009218,-0.001803,0.007803
66.107202,0.006893,-0.000538,0.008199
66.137193,0.004970,-0.002450,0.006008
66.177182,0.008728,0.001630,0.009367
66.207173,0.010392,0.001591,0.007361
66.237165,0.008762,-0.001851,0.009289
66.277153,0.008212,0.000791,0.007696
66.307145,0.011453,-0.002805,0.009852
66.337136,0.008808,-0.001016,0.006044
66.377125,0.009605,-0.002076,0.005998
66.407116,0.007793,-0.000860,0.007664
66.437107,0.008607,0.000611,0.007797
66.477096,0.010986,0.000310,0.009632
66.507087,0.008863,0.002079,0.008514
66.537079,0.009563,-0.002216,0.005876
66.577068,0.010297,0.000110,0.006573
66.607059,0.008933,-0.001619,0.006616
66.637050,0.010531,0.000969,0.005977
66.677039,0.005152,0.001780,0.008202
66.707030,0.001620,0.003559,0.006761
66.737022,0.002923,0.004039,0.005947
66.777010,0.003046,0.003472,0.006579
66.807002,0.006519,-0.000916,0.010002
66.836993,0.006094,0.001827,0.008557
66.876982,0.013157,0.000742,0.007525
66.906973,0.009090,-0.002431,0.007400
66.936965,0.011100,0.003025,0.005938
66.976953,0.006686,0.001210,0.006436
67.006945,0.009227,0.000629,0.006697
67.036936,0.008570,0.004095,0.006399
67.076925,0.008987,-0.000328,0.007615
67.106916,0.003607,0.003084,0.006790
67.136908,0.008559,-0.002255,0.005575
67.176896,0.006322,0.001618,0.007674
67.206888,0.007274,-0.000832,0.007279
67.236879,0.008845,0.000906,0.006903
67.276868,0.010576,0.000968,0.005026
67.306859,0.008614,-0.000670,0.008008
67.336851,0.009739,0.000491,0.006040
67.376839,0.007157,-0.001534,0.006058
67.406831,0.005687,0.003932,0.009963
67.436822,0.007537,0.000077,0.006507
67.476811,0.007570,-0.000841,0.006428
67.506802,0.008814,-0.001135,0.007495
67.536794,0.011183,0.000181,0.007199
67.576782,0.009705,-0.002833,0.010268
67.606774,0.007251,0.000669,0.006133
67.636765,0.009831,0.001134,0.007488
67.676754,0.005051,0.002263,0.006378
67.706745,0.006641,0.001617,0.007291
67.736737,0.009371,-0.002013,0.006694
67.776725,0.009702,-0.001556,0.008643
67.806717,0.006363,0.000865,0.007515
67.836708,0.004249,0.000455,0.006353
67.876697,0.007642,-0.002367,0.007003
67.906688,0.003925,-0.003523,0.008712
67.936680,0.004851,-0.000025,0.006428
67.976668,0.012915,0.002089,0.008962
68.006660,0.014951,0.000375,0.008638
68.036651,0.017204,-0.000129,0.007830
68.076640,0.008709,0.000276,0.006529
68.106631,0.000664,-0.001765,0.003934
68.136622,-0.000324,0.001653,0.007768
68.176611,0.006932,-0.001829,0.009210
68.206602,0.014720,-0.000596,0.006395
68.236594,0.016438,-0.001924,0.008438
68.276582,0.010596,-0.000701,0.008698
68.306574,0.005088,-0.001355,0.007953
68.336565,0.000790,0.002860,0.007616
68.376554,0.007874,0.002377,0.007665
68.406545,0.009366,-0.002400,0.006454
68.436537,0.007553,0.002126,0.006720
68.476525,0.008247,0.001481,0.008880
68.506517,0.006247,0.001193,0.007069
68.536508,0.003400,0.005100,0.007331
68.576497,0.007610,0.001211,0.006963
68.606488,0.008759,0.000396,0.007298
68.636480,0.006261,-0.001311,0.008929
68.676468,0.008730,-0.000342,0.006563
68.706460,0.009693,0.000593,0.005702
68.736451,0.012644,-0.001250,0.008787
68.776440,0.014294,0.000150,0.007281
68.806431,0.014666,-0.000518,0.007381
68.836423,0.014919,-0.000346,0.006947
68.876411,0.010076,-0.000104,0.007630
68.906403,0.007152,-0.000010,0.007638
68.936394,0.007653,-0.001929,0.006757
68.976383,0.000556,-0.000587,0.008046
69.006374,0.002407,0.001583,0.006985
69.036365,0.006981,0.000466,0.007602
69.076354,0.011571,0.000452,0.010729
69.106345,0.011601,0.001108,0.009205
69.136337,0.012832,0.002136,0.007468
69.176326,0.011173,-0.000993,0.006187
69.206318,0.002079,0.001304,0.008659
69.236309,0.007889,0.000030,0.010694
69.276298,0.004046,-0.000006,0.006955
69.306289,0.010978,0.003258,0.005973
69.336281,0.008176,-0.000043,0.008722
69.376269,0.004866,-0.000172,0.006833
69.406261,0.007646,-0.001552,0.007249
69.436252,0.008795,0.000646,0.006956
69.476241,0.007370,0.000578,0.007399
69.506232,0.011215,0.002024,0.011040
69.536224,0.008306,0.001593,0.004279
69.576212,0.003293,0.004318,0.004754
69.606204,0.002996,0.000679,0.007161
69.636195,0.006790,0.002432,0.007703
69.676184,0.006931,0.001973,0.006662
69.706175,0.007719,-0.001501,0.005980
69.736166,0.007689,0.000823,0.007477
69.776155,0.004959,0.000208,0.005914
69.806146,0.009267,-0.003462,0.006878
69.836138,0.011684,-0.001164,0.009384
69.876126,0.013248,-0.000564,0.006440
69.906118,0.008223,-0.001108,0.006964
69.936109,0.012370,0.000786,0.006517
69.976098,0.005587,0.001478,0.006262
70.006089,0.011023,-0.001700,0.004405
70.036081,0.006239,-0.000364,0.004868
70.076069,0.008421,0.001230,0.007658
70.106061,0.009526,-0.000471,0.008639
70.136052,0.006259,0.002972,0.006995
70.176040,0.006187,0.001848,0.006818
70.206031,0.009812,0.002363,0.009854
70.236023,0.008037,0.002629,0.006375
70.276011,0.005052,0.000746,0.006282
70.306003,0.007172,0.000913,0.010082
70.335994,0.008925,-0.003829,0.009574
70.375983,0.009571,-0.001490,0.009086
70.405974,0.009593,-0.001022,0.005035
70.435965,0.008400,0.001756,0.008502
70.475954,0.007116,0.001772,0.006237
70.505945,0.006697,-0.000295,0.007527
70.535937,0.004138,-0.000929,0.005935
70.575925,0.008244,0.000170,0.007659
70.605917,0.006106,0.003997,0.007113
70.635908,0.010382,0.000248,0.006724
70.675897,0.005986,0.000580,0.009730
70.705888,0.005992,0.001209,0.007393
70.735880,0.008201,-0.000950,0.007964
70.775868,0.005492,-0.001620,0.009662
70.805860,0.009307,-0.000494,0.007637
70.835851,0.008918,-0.001246,0.008851
70.875840,0.009345,-0.001377,0.007677
70.905831,0.008298,0.001833,0.008826
70.935823,0.011066,-0.000852,0.008253
70.975811,0.005502,0.000199,0.005127
71.005803,0.008989,0.003282,0.006143
71.035794,0.008077,0.002700,0.009457
71.075783,0.007385,0.002654,0.007011
71.105774,0.009594,-0.000413,0.006381
71.135765,0.008064,-0.000906,0.010979
71.175754,0.008790,-0.002302,0.009407
71.205745,0.007677,0.000095,0.006062
71.235737,0.007342,0.000152,0.005751
71.275725,0.005715,0.003316,0.010537
71.305717,0.007959,0.000406,0.007307
71.345705,0.009217,0.000045,0.008839
71.375697,0.005710,0.003372,0.008383
71.405688,0.010355,0.001458,0.008604
71.445677,0.012286,-0.002246,0.007083
71.475668,0.008237,0.000625,0.007925
71.505660,0.004182,0.001155,0.008245
71.545648,0.009752,-0.002213,0.009656
71.575640,0.010926,-0.000353,0.008861
71.605631,0.009357,-0.000816,0.008417
71.645620,0.013814,0.000834,0.008545
71.675611,0.007083,-0.001167,0.005375
71.705602,0.007074,0.002563,0.006825
71.745591,0.004565,0.001594,0.009021
71.775582,0.007922,0.001790,0.006246
71.805574,0.007306,0.001813,0.006870
71.845562,0.008611,0.001872,0.005882
71.875554,0.008482,-0.001800,0.010541
71.905545,0.009018,0.002698,0.008057
71.945534,0.009069,0.006267,0.006208
71.975525,0.005622,0.002246,0.007821
72.005517,0.009667,0.002010,0.008112
72.045505,0.005254,-0.000347,0.005914
72.075497,0.012879,-0.000619,0.006915
72.105488,0.005020,0.000664,0.010626
72.145477,0.008407,0.001566,0.007168
72.175468,0.007322,-0.000502,0.007636
72.205459,0.006598,-0.002608,0.008092
72.245448,0.008481,-0.001596,0.008785
72.275439,0.011900,0.001704,0.008025
72.305431,0.010276,-0.000184,0.006138
72.345419,0.009328,-0.001861,0.007676
72.375411,0.008750,0.000330,0.006352
72.405402,0.002680,-0.000249,0.007821
72.445391,0.004124,0.001592,0.007223
72.475382,0.004543,0.002007,0.007636
72.505374,0.007420,-0.000424,0.003741
72.545362,0.011324,-0.000243,0.008865
72.575354,0.008914,-0.002646,0.008933
72.605345,0.008789,-0.001746,0.008869
72.645334,0.009433,0.001124,0.006494
72.675325,0.006952,0.001565,0.007475
72.705316,0.008192,-0.000629,0.009208
72.745305,0.009303,0.004328,0.009548
72.775296,0.010114,-0.003390,0.006912
72.805288,0.007546,0.002051,0.006634
72.845276,0.008008,-0.000130,0.008943
72.875268,0.010754,-0.002481,0.008289
72.905259,0.002784,0.000519,0.008996
72.945248,0.007127,-0.000199,0.009338
72.975239,0.008883,0.002138,0.009641
73.005231,0.010506,0.001171,0.005953
73.045219,0.008356,0.001523,0.005982
73.075211,0.009775,0.000402,0.009275
73.105202,0.002593,0.004298,0.006862
73.145191,0.003911,0.003780,0.007022
73.175182,0.004614,0.001682,0.008435
73.205173,0.007688,0.001659,0.010002
73.245162,0.011508,0.000052,0.004919
73.275153,0.008979,0.000082,0.005580
73.305145,0.010372,0.000726,0.007977
73.345133,0.008090,-0.000392,0.008837
73.375125,0.005708,0.000434,0.006663
73.405116,0.007323,0.001025,0.006898
73.445105,0.007470,0.000255,0.007586
73.475096,0.006133,0.001646,0.006245
73.505087,0.010646,-0.000766,0.006699
73.545076,0.003040,0.001270,0.006414
73.575067,0.008925,0.000001,0.005906
73.605059,0.010282,0.000754,0.008341
73.645047,0.008958,0.000215,0.009447
73.675039,0.008164,-0.001655,0.008788
73.705030,0.009597,0.000305,0.006440
73.745019,0.010367,-0.000480,0.008139
73.775010,0.011422,0.000770,0.008251
73.805002,0.007312,0.002225,0.010157
73.844990,0.006545,0.001199,0.005932
73.874982,0.005544,0.000263,0.005127
73.904973,0.006522,0.003281,0.006305
73.944962,0.008704,0.000415,0.008321
73.974953,0.008170,-0.002052,0.005226
74.004944,0.007283,0.000332,0.008143
74.044933,0.004953,0.001238,0.009952
74.074924,0.006694,0.002633,0.009094
74.104916,0.009046,0.003334,0.007747
74.144904,0.009535,0.002817,0.008007
74.174900,0.006097,-0.001572,0.008600
74.204891,0.012149,-0.001770,0.006658
74.244880,0.007903,0.000563,0.008711
74.274871,0.002134,-0.001317,0.007189
74.304862,0.006956,-0.001874,0.006968
74.344851,0.010403,-0.001241,0.008608
74.374842,0.010200,0.000064,0.007563
74.404834,0.007617,0.002327,0.007288
74.444822,0.008499,-0.000205,0.007835
74.474814,0.009852,0.001231,0.005506
74.504805,0.009149,-0.000403,0.007636
74.544794,0.004321,0.001272,0.007088
74.574785,0.001361,0.005206,0.006034
74.604777,0.001546,0.002785,0.005484
74.644765,0.005773,0.000938,0.007340
74.674757,0.005579,0.003409,0.007997
74.704748,0.005883,0.001120,0.005982
74.744736,0.007572,0.001189,0.006323
74.774728,0.007011,0.001617,0.008257
74.804719,0.004207,0.001858,0.006989
74.844708,0.006409,0.001066,0.005246
74.874699,0.007711,0.000609,0.007319
74.904691,0.010052,-0.000325,0.007172
74.944679,0.015259,-0.000718,0.007648
74.974671,0.010418,0.003248,0.008985
75.004662,0.009778,-0.001927,0.009674
75.044651,0.007687,0.002120,0.007232
75.074642,0.007693,0.000037,0.007766
75.104633,0.008276,0.000932,0.007160
75.144622,0.008014,0.000326,0.008907
75.174613,0.010239,-0.001750,0.006463
75.204605,0.010102,0.001035,0.006148
75.244593,0.008527,0.000480,0.008736
75.274585,0.011021,-0.000141,0.010104
75.304576,0.005272,0.000750,0.007864
75.344565,0.007377,0.002060,0.006789
75.374556,0.005387,0.001165,0.008669
75.404547,0.006329,0.001700,0.007445
75.444536,0.008389,0.002110,0.004959
75.474527,0.009625,-0.002192,0.006841
75.504519,0.005857,-0.000796,0.006276
75.544507,0.005585,-0.001242,0.006623
75.574499,0.003911,0.000173,0.006658
75.604490,0.006079,0.002111,0.008984
75.644479,0.008550,0.001356,0.004968
75.674470,0.006311,0.000452,0.008643
75.704461,0.011185,-0.001864,0.007473
75.744450,0.003347,0.002047,0.010041
75.774441,0.006381,0.001359,0.004954
75.804433,0.007546,0.003194,0.007296
75.844421,0.008734,0.001180,0.008016
75.874413,0.008553,-0.001871,0.008187
75.904404,0.007894,-0.003580,0.007246
75.944393,0.010592,-0.001912,0.007479
75.974384,0.007911,0.001179,0.009839
76.004376,0.009525,-0.001450,0.007619
76.044364,0.005401,0.000637,0.006396
76.074355,0.002914,0.002151,0.007613
76.104347,0.006484,-0.000250,0.007640
76.144335,0.007389,-0.000385,0.006957
76.174326,0.011301,-0.000022,0.006350
76.204317,0.009522,-0.001692,0.006672
76.244306,0.007826,0.000326,0.007691
76.274297,0.004325,0.001639,0.008054
76.304289,0.007829,0.000840,0.005450
76.344277,0.004192,0.001541,0.007232
76.374268,0.008278,-0.002258,0.007703
76.404260,0.005886,-0.000131,0.004012
76.444248,0.008077,-0.000263,0.007805
76.474240,0.002265,-0.000973,0.006198
76.504231,0.009366,0.000978,0.006235
76.544220,0.007147,0.002354,0.007486
76.574211,0.005297,-0.000901,0.007030
76.604203,0.007231,-0.000458,0.007481
76.644191,0.007429,-0.000495,0.006056
76.674183,0.008528,-0.001131,0.008300
76.704174,0.011048,-0.001725,0.008199
76.744162,0.006590,0.003273,0.006658
76.774154,0.004390,-0.000119,0.007018
76.804145,0.004481,-0.000297,0.006850
76.844134,0.008694,-0.000575,0.008833
76.874125,0.007857,-0.000615,0.005099
76.904117,0.011066,0.002100,0.005587
76.944105,0.011452,0.001448,0.011224
76.974097,0.011870,0.001645,0.005892
77.004088,0.011135,0.001246,0.005901
77.044077,0.009801,0.000917,0.007784
77.074068,0.007499,0.001559,0.007751
77.104059,0.009285,-0.000436,0.007042
77.144048,0.004583,0.000344,0.008877
77.174036,0.007238,-0.000876,0.007501
77.204028,0.002957,0.000935,0.006422
77.244016,0.007351,-0.001027,0.005389
77.274008,0.007132,0.001201,0.009177
77.303999,0.008462,0.000671,0.007595
77.343988,0.011357,-0.000409,0.007950
77.373979,0.010347,0.001367,0.006187
77.403970,0.014044,0.000833,0.007838
77.443959,0.010360,0.001063,0.007023
77.473950,0.008038,0.000662,0.004475
77.503942,0.002897,0.003707,0.007557
77.543930,0.004565,0.002385,0.008985
77.573922,0.005168,0.003436,0.004985
77.603913,0.005238,0.002788,0.007920
77.643902,0.008045,0.000443,0.008794
77.673893,0.007129,0.000956,0.008457
77.703884,0.006430,-0.000146,0.006710
77.743873,0.006453,0.002203,0.007369
77.773864,0.010935,0.000447,0.010836
77.803856,0.011910,0.000070,0.005657
77.843844,0.014789,0.002053,0.007993
77.873836,0.013471,0.002170,0.010125
77.903827,0.010220,-0.000516,0.006014
77.943816,0.010732,0.000632,0.006326
77.973807,0.008283,-0.001470,0.007877
78.003798,0.006739,0.000077,0.008971
78.043787,0.004411,-0.000618,0.006107
78.073778,0.004885,0.000798,0.004478
78.103770,0.005071,0.003301,0.006917
78.143758,0.008518,0.001928,0.007057
78.173750,0.010370,0.001729,0.006073
78.203741,0.009484,0.000489,0.006762
78.243730,0.007706,0.001102,0.009763
78.273721,0.008211,0.001746,0.006510
78.303712,0.009016,0.000990,0.005462
78.343701,0.007704,-0.002238,0.009790
78.373692,0.006977,0.000055,0.009892
78.403684,0.005021,-0.001382,0.007685
78.443672,0.006361,0.000196,0.002282
78.473664,0.008093,-0.000608,0.007599
78.503655,0.011571,0.002410,0.008892
78.543644,0.012596,-0.001154,0.006651
78.573635,0.008935,0.002001,0.007762
78.603626,0.008591,0.000356,0.008052
78.643615,0.003117,0.002152,0.005606
78.673606,0.007766,-0.000739,0.004804
78.703598,0.006979,0.000024,0.005539
78.743586,0.006887,0.003000,0.007463
78.773578,0.008690,-0.002262,0.007119
78.803569,0.009072,-0.000437,0.006761
78.843558,0.008942,-0.000327,0.009141
78.873549,0.010798,-0.002343,0.008560
78.903541,0.010109,-0.001155,0.006989
78.943529,0.007998,0.000202,0.004797
78.973520,0.006682,-0.001816,0.008233
79.003512,0.005714,-0.000725,0.008922
79.043500,0.008835,0.001535,0.007014
79.073492,0.007011,-0.000601,0.006205
79.103483,0.006871,0.000361,0.008290
79.143472,0.000638,0.000767,0.006834
79.173463,0.002863,-0.000713,0.006750
79.203455,0.001633,0.001782,0.008486
79.243443,0.009721,0.002408,0.007766
79.273435,0.011528,-0.000660,0.006868
79.303426,0.010406,-0.002157,0.006925
79.343414,0.007429,0.000079,0.006088
79.373406,0.007603,0.001678,0.006858
79.403398,0.007952,-0.001010,0.003066
79.443386,0.008542,-0.001683,0.006314
79.473377,0.011339,0.000229,0.006041
79.503370,0.012562,-0.003275,0.006165
79.543357,0.014584,-0.001747,0.004964
79.573349,0.011081,0.002141,0.009292
79.603341,0.011868,-0.001922,0.007981
79.643329,0.008707,0.001709,0.005164
79.673321,0.003524,0.002820,0.008371
79.703312,0.003123,0.001930,0.007406
79.743301,0.006095,0.001013,0.005070
79.782041,0.009024,-0.000148,0.006795
79.812033,0.008858,0.000018,0.007115
79.852021,0.007558,0.000263,0.004023
79.882013,0.005988,0.002889,0.006134
79.912004,0.005176,-0.000066,0.007099
79.951992,0.006179,0.000833,0.007548
79.981984,0.006938,0.003300,0.004228
80.011976,0.011153,-0.000767,0.007773
80.051964,0.007703,0.002436,0.007514
80.081956,0.010904,0.002305,0.006273
80.111947,0.003209,0.000364,0.010033
80.151936,0.004088,-0.000315,0.008008
80.181926,0.006307,-0.002190,0.005948
80.211917,0.007534,0.000809,0.007920
80.251906,0.009757,-0.000330,0.009296
80.281897,0.012807,-0.000673,0.006173
80.311889,0.008561,0.000962,0.006082
80.341879,0.008752,-0.001844,0.009449
80.381868,0.010770,-0.000055,0.007885
80.411859,0.001215,0.003512,0.009402
80.441850,-0.000976,0.001556,0.006745
80.481839,-0.000752,0.000117,0.006208
80.511830,0.008514,0.002105,0.006090
80.541822,0.011419,0.001361,0.007393
80.581810,0.007749,0.001661,0.008973
80.611802,0.009061,-0.001720,0.008029
80.641793,0.007775,0.002596,0.009697
80.681782,0.007675,0.003727,0.006191
80.711773,0.002932,0.000849,0.005472
80.741764,0.001167,0.001851,0.007101
80.781753,0.003653,0.003298,0.008491
80.811744,0.023459,-0.004626,0.005357
80.841736,0.030160,0.002195,0.007868
80.881724,0.025612,-0.000150,0.005933
80.911716,0.015385,-0.003707,0.009309
80.941707,0.005257,-0.000233,0.008232
80.981696,-0.004112,-0.001200,0.008934
81.011687,0.003442,-0.003275,0.007939
81.041678,0.006392,-0.000839,0.006447
81.081667,0.010668,0.001334,0.009778
81.111658,0.013016,-0.000897,0.006450
81.141650,0.017726,0.000854,0.006455
81.181637,0.012353,0.002086,0.005786
81.211629,0.008570,0.003132,0.010190
81.241620,0.011973,0.000831,0.007588
81.281609,0.009272,-0.001008,0.007404
81.311600,0.007609,-0.003698,0.006174
81.341591,0.008650,-0.004330,0.007251
81.381580,0.007508,0.001063,0.007480
81.411571,0.010904,-0.002510,0.006310
81.441563,0.010221,-0.001164,0.009964
81.481551,0.019521,-0.003131,0.006010
81.511543,0.010631,0.000446,0.009674
81.541534,0.014766,0.001509,0.004757
81.581522,0.003104,0.004828,0.007213
81.611514,0.002398,0.004190,0.005252
81.641505,-0.003298,0.001896,0.006435
81.681494,-0.005041,0.000813,0.006399
81.711485,-0.003163,-0.001588,0.008191
81.741477,0.001072,-0.003519,0.008455
81.781465,0.013668,-0.006424,0.006404
81.811457,0.011056,-0.002826,0.006804
81.841448,0.012826,-0.000469,0.007305
81.881436,0.009809,0.002233,0.007384
81.911428,0.009230,-0.001483,0.007454
81.941419,0.011616,0.000038,0.009600
81.981408,0.010638,0.000045,0.007211
82.011399,0.009678,-0.003939,0.006314
82.041391,0.006537,0.001520,0.005192
82.081379,0.002276,-0.000476,0.008671
82.111370,0.002385,0.001969,0.006581
82.141362,0.004404,0.002150,0.006610
82.181351,0.006792,0.003102,0.007176
82.211343,0.009963,0.002180,0.005025
82.241334,0.007529,0.000741,0.007288
82.281323,0.011702,-0.001808,0.007802
82.311314,0.004915,0.002533,0.008091
82.341305,0.008775,0.000732,0.007773
82.381294,0.010266,0.001301,0.005993
82.411285,0.009545,-0.000760,0.005452
82.441277,0.009929,-0.001190,0.009569
82.481265,0.014975,0.000013,0.006815
82.511257,0.015804,-0.000275,0.009596
82.541248,0.013115,-0.000819,0.009320
82.581237,0.009161,0.000577,0.006423
82.611228,0.002060,0.001138,0.006818
82.641219,0.002028,0.004378,0.007528
82.681208,0.006792,0.001323,0.007856
82.711199,0.006192,-0.000505,0.005296
82.741191,0.010692,0.000906,0.010638
82.781179,0.009336,0.002093,0.008581
82.811171,0.005665,0.001289,0.006439
82.841162,0.005103,0.003018,0.008322
82.881150,0.006919,0.000633,0.009037
82.911142,0.006545,0.001967,0.008691
82.941133,0.008972,-0.001760,0.004350
82.981122,0.011876,0.000042,0.006754
83.011113,0.008306,0.002329,0.007484
83.041105,0.003773,-0.001725,0.008260
83.081093,0.007758,-0.001778,0.006825
83.111085,0.005265,-0.001704,0.004159
83.141076,0.008960,-0.002190,0.006846
83.181068,0.010612,-0.001873,0.007497
83.211060,0.007804,0.001999,0.007521
83.241051,0.007016,-0.003002,0.008327
83.281040,0.010568,-0.001750,0.007560
83.311031,0.005010,0.001674,0.005401
83.341022,0.004496,-0.001518,0.008410
83.381011,0.004119,0.000460,0.008183
83.411002,0.006801,-0.000236,0.008604
83.440994,0.010137,-0.000677,0.005550
83.480982,0.009581,0.001220,0.008378
83.510974,0.008818,-0.000116,0.008203
83.540965,0.005002,0.000446,0.006639
83.580954,0.005356,0.001678,0.006738
83.610945,0.008722,-0.000316,0.007378
83.640936,0.009749,-0.001227,0.006608
83.680925,0.008991,0.001398,0.007917
83.710916,0.007719,-0.000142,0.005409
83.740908,0.009926,0.001131,0.007931
83.783397,0.008696,-0.000672,0.008433
83.813388,0.009621,-0.001695,0.006280
83.843379,0.007156,-0.002924,0.009650
83.883368,0.008068,-0.000012,0.009281
83.913359,0.008093,-0.000424,0.005645
83.943351,0.011521,-0.000397,0.006358
83.983339,0.009338,-0.001007,0.007872
84.013330,0.010399,-0.000891,0.009109
84.053319,0.004797,0.002328,0.007680
84.083310,0.005796,-0.002582,0.007698
84.113302,0.007167,0.003368,0.009636
84.143293,0.006791,-0.000080,0.009807
84.183278,0.012210,0.000866,0.006856
84.213269,0.010534,0.000063,0.005100
84.243260,0.010119,0.000820,0.007376
84.283249,0.007195,0.001055,0.007226
84.313240,0.006052,0.002837,0.007179
84.343229,0.008890,0.002030,0.010046
84.373221,0.007202,0.001681,0.007658
84.403212,0.013194,0.000577,0.007804
84.443201,0.009585,0.000545,0.007983
84.473192,0.010501,-0.001364,0.008531
84.503183,0.002373,0.001293,0.008069
84.543172,0.011005,-0.000273,0.007605
84.573163,0.008455,0.000905,0.006093
84.603155,0.011269,0.000850,0.007736
84.643143,0.010599,0.003284,0.006318
84.673134,0.010711,-0.001022,0.005011
84.703126,0.012263,0.003330,0.007265
84.743114,0.012065,0.005473,0.007737
84.773106,0.007054,0.000690,0.004154
84.803097,0.003574,0.004935,0.004675
84.843086,0.005451,0.002292,0.006772
84.873077,0.005797,0.001939,0.005086
84.903068,0.007608,0.001850,0.007316
84.943057,0.011663,-0.000606,0.004926
84.973048,0.011638,0.000721,0.007662
85.003040,0.010128,-0.002405,0.007061
85.043028,0.008867,-0.003134,0.005446
85.073020,0.011504,-0.000525,0.007088
85.103011,0.007131,-0.003784,0.006483
85.143000,0.001219,-0.000487,0.006421
85.172991,0.009791,-0.000228,0.006092
85.202982,0.005589,0.000400,0.006006
85.242971,0.006387,0.001135,0.006871
85.272962,0.007988,0.004020,0.006579
85.302954,0.011100,0.001441,0.007208
85.342942,0.010706,0.002065,0.007475
85.372934,0.017678,-0.000340,0.008281
85.402925,0.014285,0.000042,0.011486
85.442913,0.011210,0.000009,0.007740
85.472905,0.004561,-0.000925,0.007536
85.502896,0.003449,0.000139,0.005366
85.542885,-0.002565,0.006247,0.007017
85.572876,0.002434,0.000381,0.006744
85.602868,0.005154,0.003000,0.005334
85.642856,0.009966,0.004443,0.007919
85.672848,0.009938,-0.000274,0.005962
85.702839,0.003871,0.001851,0.007049
85.742827,0.003960,0.002312,0.007711
85.772819,0.005453,0.001852,0.008201
85.802810,0.012424,-0.001573,0.008568
85.842799,0.012539,-0.002834,0.005714
85.872790,0.011694,0.000038,0.007409
85.902781,0.008851,-0.000622,0.007770
85.942770,0.005724,-0.001159,0.009007
85.972761,0.003796,-0.000345,0.006199
86.002753,0.004357,-0.002142,0.007071
86.042741,0.008592,-0.000553,0.008736
86.072733,0.006976,0.001831,0.005051
86.102724,0.010371,-0.000695,0.004445
86.142713,0.008486,0.001152,0.008338
86.172706,0.010750,0.000580,0.007864
86.202697,0.006282,-0.003825,0.006011
86.242686,0.006719,0.000809,0.004977
86.272677,0.004593,0.004695,0.007419
86.302669,0.001108,0.001999,0.007697
86.342657,0.006184,0.001988,0.007968
86.372649,0.006571,0.001775,0.008901
86.402640,0.010407,0.001887,0.008948
86.442629,0.009587,-0.000537,0.007471
86.472620,0.008258,0.001210,0.007604
86.502611,0.008344,0.001652,0.007730
86.542600,0.010069,0.001990,0.005219
86.572591,0.011692,-0.000315,0.007968
86.602583,0.009169,-0.000032,0.009451
86.642571,0.006870,0.002863,0.008770
86.672563,0.009227,-0.003738,0.007499
86.702554,0.006588,0.002065,0.004671
86.742543,0.010513,0.001321,0.006242
86.772534,0.002779,0.000613,0.006501
86.802525,0.009277,-0.000201,0.008957
86.842514,0.010085,0.002997,0.007927
86.872505,0.009567,0.000111,0.007621
86.902497,0.009412,0.001207,0.005466
86.942485,0.009065,0.000309,0.004838
86.972477,0.009863,0.000655,0.008627
87.002468,0.008268,-0.000946,0.007658
87.042456,0.005259,-0.001268,0.005431
87.072448,0.006236,0.002217,0.007606
87.102439,0.006838,-0.002023,0.008066
87.142428,0.005886,-0.000759,0.005000
87.172416,0.007289,-0.001634,0.008468
87.202408,0.010573,0.001086,0.008124
87.242396,0.011643,0.000580,0.006941
87.272387,0.010669,0.003224,0.006097
87.302379,0.005404,0.003416,0.009139
87.342367,0.012540,-0.005587,0.006733
87.372359,0.012049,-0.002096,0.006412
87.402350,0.009956,0.005852,0.006191
87.442339,0.009455,0.005585,0.008264
87.472330,0.005063,0.007627,0.006570
87.502322,0.002895,0.006771,0.007292
87.542310,0.004148,-0.001603,0.007755
87.572301,0.005002,0.002535,0.006221
87.602293,0.002915,0.002755,0.006030
87.642281,0.009022,0.001322,0.007413
87.672273,0.008172,-0.000393,0.005490
87.702264,0.010435,0.001703,0.006066
87.742253,0.010841,0.000281,0.007432
87.784743,0.009558,-0.000714,0.005936
87.814734,0.008681,-0.001087,0.006682
87.844726,0.003539,0.001190,0.008971
87.884714,0.003324,0.000865,0.004579
87.914706,0.007690,0.001991,0.008050
87.944697,0.007204,0.001282,0.007264
87.984686,0.008200,0.000268,0.008028
88.014677,0.007563,0.001181,0.009681
88.044668,0.006708,0.000753,0.004007
88.084657,0.004834,0.002029,0.007997
88.114648,0.010002,0.001862,0.006028
88.144640,0.003188,0.000965,0.005980
88.184629,0.009546,0.002098,0.006633
88.214621,0.008208,0.002298,0.007248
88.244612,0.007550,-0.000851,0.007268
88.284601,0.009878,0.001471,0.007198
88.314592,0.010843,-0.001290,0.007880
88.344581,0.006777,-0.000296,0.007792
88.374573,0.006854,0.000832,0.005413
88.404564,0.010032,0.000091,0.008560
88.444552,0.007694,0.000062,0.007491
88.474544,0.010019,-0.002452,0.008457
88.504535,0.008228,-0.001587,0.005470
88.544524,0.009723,-0.001511,0.008766
88.574515,0.008647,-0.000028,0.008373
88.604507,0.006915,0.001390,0.008177
88.644495,0.002311,-0.001322,0.006026
88.674487,0.003060,0.002574,0.008320
88.704478,0.007555,0.000499,0.007474
88.744466,0.008532,0.000558,0.006875
88.774458,0.008363,0.003380,0.008905
88.804449,0.006943,0.000863,0.008967
88.844438,0.003068,0.000845,0.007586
88.874429,0.008726,0.005574,0.006266
88.904421,0.004846,0.002136,0.008373
88.944409,0.005787,0.001959,0.007689
88.974400,0.006125,0.000248,0.006567
89.004392,0.009007,-0.002541,0.007784
89.044380,0.011599,0.001183,0.007482
89.074372,0.008947,0.004177,0.007014
89.104363,0.005786,0.002778,0.006130
89.144352,0.007549,0.002418,0.009852
89.174347,0.004380,0.001089,0.009827
89.204338,0.005183,0.002931,0.007813
89.244327,0.008629,0.001443,0.009020
89.274318,0.007792,-0.000690,0.008004
89.304310,0.012122,-0.000333,0.008286
89.344298,0.010931,0.000825,0.008861
89.374290,0.009012,0.000261,0.004698
89.404281,0.004339,0.002268,0.008740
89.444269,0.006402,0.001178,0.005099
89.474261,0.005563,-0.000116,0.007948
89.504252,0.008657,0.004366,0.007095
89.544241,0.008224,-0.001093,0.008679
89.574232,0.008753,-0.001266,0.006492
89.604224,0.010137,0.000991,0.008589
89.644212,0.008704,0.000104,0.008606
89.674203,0.009710,0.000973,0.007774
89.704195,0.009550,-0.001550,0.007022
89.744183,0.009699,0.001908,0.007098
89.774175,0.007168,0.001203,0.007544
89.804166,0.009823,0.000358,0.006752
89.844155,0.008341,-0.000986,0.006045
89.874146,0.000970,0.001117,0.009927
89.904137,0.008928,-0.000797,0.006240
89.944126,0.012129,0.000921,0.006709
89.974117,0.008152,0.002141,0.005587
90.004109,0.009403,-0.001374,0.006702
90.044097,0.010229,-0.002409,0.007624
90.074089,0.009614,0.001378,0.004254
90.104080,0.006763,-0.001763,0.008609
90.144069,0.006841,0.001004,0.008871
90.174056,0.004615,0.003298,0.006250
90.204047,0.004953,0.001415,0.008772
90.244036,0.008541,0.002890,0.006420
90.274027,0.011683,-0.000088,0.005726
90.304019,0.008417,0.001017,0.006432
90.344007,0.007150,0.000807,0.010486
90.373998,0.010965,-0.000349,0.007930
90.403990,0.011706,-0.000447,0.008774
90.443978,0.008287,-0.000960,0.009890
90.473970,0.005976,-0.001766,0.008037
90.503961,0.005813,0.001645,0.008691
90.543950,0.008794,0.003559,0.005463
90.573941,0.011724,0.000523,0.006697
90.603932,0.011294,-0.001641,0.008372
90.643921,0.010014,-0.001657,0.003832
90.673912,0.009251,-0.001906,0.005800
90.703904,0.003799,-0.000274,0.005269
90.743892,0.003186,0.001339,0.005947
90.773884,0.009935,-0.000982,0.007477
90.803875,0.016331,-0.002857,0.007441
90.843863,0.011950,-0.001773,0.008915
90.873855,0.004771,0.003295,0.006348
90.903846,-0.000942,0.003523,0.005841
90.943835,0.008004,0.001270,0.005111
90.973826,0.005330,0.006070,0.007643
91.003817,0.007014,0.003284,0.005884
91.043806,0.008459,0.003149,0.007482
91.073797,0.012092,0.005311,0.008043
91.103789,0.007958,0.004937,0.007367
91.143777,0.002985,0.001807,0.006183
91.173769,0.003021,0.001703,0.008250
91.203760,0.003562,0.004160,0.007546
91.243748,0.005709,0.000896,0.007029
91.273740,0.009988,0.000773,0.006566
91.303731,0.015908,-0.002059,0.005937
91.343720,0.017496,-0.004813,0.006456
91.373711,-0.000472,0.002357,0.009076
91.403702,0.003645,-0.004076,0.009244
91.443691,-0.003581,0.002535,0.005017
91.473682,0.009174,-0.001333,0.007244
91.503674,0.014408,-0.000525,0.007850
91.543662,0.017732,0.000875,0.007729
91.573654,0.020467,-0.001379,0.007286
91.603645,0.019011,-0.001404,0.007793
91.643633,0.012453,-0.001458,0.004002
91.673625,0.004498,0.000162,0.008067
91.703616,0.001715,0.001481,0.006275
91.743605,0.008614,0.000271,0.007738
91.773596,0.010952,-0.000679,0.010000
91.803588,0.013352,-0.000750,0.006667
91.843576,0.014470,0.000970,0.006290
91.873567,0.012835,0.000540,0.006471
91.903559,0.012170,0.001642,0.009729
91.943547,0.005332,0.000332,0.007887
91.973539,0.010486,-0.001762,0.005945
92.003530,0.015375,-0.003061,0.007441
92.043519,0.010526,-0.000824,0.009334
92.073510,0.012039,-0.004001,0.006117
92.103501,0.006440,0.000432,0.009015
92.143490,0.003896,0.001093,0.008191
92.173481,0.003824,-0.001247,0.006918
92.203473,0.003861,0.003018,0.006908
92.243461,0.008758,-0.000106,0.008537
92.273452,0.009629,-0.000299,0.008806
92.303444,0.011034,-0.000256,0.009017
92.343432,0.013539,-0.002552,0.006600
92.373424,0.012490,0.001925,0.007088
92.403415,0.007067,0.002519,0.007035
92.443404,0.004629,0.001121,0.008920
92.473395,0.007454,0.002655,0.007701
92.503386,0.001602,0.001570,0.007433
92.543375,0.008990,-0.001037,0.006445
92.573366,0.006008,-0.000840,0.008377
92.603358,0.008476,-0.000207,0.005759
92.643346,0.015234,-0.002864,0.008772
92.673338,0.009121,0.001058,0.004729
92.703329,0.008923,-0.001632,0.007482
92.743317,0.014385,-0.001120,0.012009
92.773309,0.012166,-0.000494,0.007668
92.803300,0.011670,0.000063,0.006876
92.843289,0.006136,-0.000094,0.009544
92.873280,0.007467,0.002273,0.008848
92.903271,0.005470,-0.000580,0.006741
92.943260,0.004176,-0.000061,0.006567
92.973251,0.008939,0.001126,0.010118
93.003243,0.007493,-0.001588,0.006207
93.043231,0.009540,-0.000123,0.005918
93.073222,0.010138,0.002741,0.006931
93.103214,0.003865,0.001499,0.006526
93.143202,0.007479,0.002965,0.008042
93.173194,0.006028,0.001607,0.007726
93.203185,0.009996,0.003122,0.007740
93.243174,0.009252,-0.000527,0.008073
93.273165,0.012419,-0.002154,0.007019
93.303156,0.012874,-0.000066,0.005927
93.343145,0.014225,-0.000913,0.006031
93.373136,0.008091,-0.000196,0.008367
93.403128,0.007162,-0.000629,0.006402
93.443116,0.006862,0.001545,0.010670
93.473107,0.005331,0.000511,0.008471
93.503099,0.009013,-0.001269,0.007167
93.543087,0.007395,-0.000043,0.005072
93.573079,0.008236,-0.001649,0.007650
93.603070,0.009233,-0.002745,0.007426
93.643059,0.005381,0.000190,0.006073
93.673050,0.005703,0.000998,0.008434
93.703041,0.002773,-0.000125,0.009361
93.743030,0.014507,-0.002331,0.008635
93.773021,0.014080,-0.001125,0.008136
93.803013,0.007455,-0.001381,0.010215
93.843001,0.002340,0.001222,0.007856
93.872992,-0.003270,0.001136,0.005361
93.902984,0.002398,-0.000364,0.003537
93.942972,0.014151,0.002225,0.007213
93.972964,0.015529,-0.002477,0.007585
94.002955,0.015754,-0.003612,0.007026
94.042944,0.010608,-0.000369,0.008837
94.072935,0.011460,-0.004458,0.008036
94.102926,0.021063,-0.006093,0.008502
94.142915,0.020953,-0.002665,0.006564
94.172906,0.018424,-0.003481,0.009588
94.202898,0.014415,-0.002780,0.006408
94.242886,0.002486,-0.000362,0.006882
94.272877,0.000266,-0.000901,0.006509
94.302869,-0.002894,0.002471,0.007471
94.342857,0.000276,0.001386,0.007794
94.372849,0.002503,0.000452,0.005918
94.402840,0.004125,0.000461,0.004914
94.442828,0.006238,-0.001806,0.006543
94.472820,0.015273,-0.000693,0.005914
94.502811,0.014895,-0.000278,0.006102
94.542800,0.011176,-0.001264,0.008752
94.572791,0.013320,-0.000408,0.006998
94.602783,0.010492,-0.003233,0.007797
94.642771,0.005115,-0.002251,0.005236
94.672762,0.010282,0.001165,0.007689
94.702754,0.006927,0.001269,0.007152
94.742742,0.002585,-0.000394,0.011464
94.772734,0.004785,0.002274,0.006214
94.802725,0.007627,-0.001886,0.008970
94.842713,0.002624,0.002398,0.005083
94.872705,0.007761,0.001883,0.010187
94.902696,0.003640,0.002288,0.007222
94.942685,0.006020,0.002601,0.006090
94.972676,0.004244,0.000696,0.007590
95.002667,0.002428,0.000450,0.007528
95.042656,0.005825,-0.000032,0.005969
95.072647,0.005327,0.001218,0.006053
95.102639,0.004262,0.002296,0.006556
95.142627,0.006023,-0.001870,0.006977
95.172618,0.002692,0.002098,0.007313
95.202610,0.000337,0.001401,0.006334
95.242598,0.002594,0.000300,0.007644
95.272590,0.004089,0.000587,0.008771
95.302581,0.008046,-0.001419,0.006259
95.342570,0.013410,0.000979,0.008373
95.372561,0.010191,0.002087,0.005166
95.402552,0.010974,0.000438,0.006998
95.442541,0.006228,0.003507,0.006154
95.472532,0.007705,0.002610,0.007543
95.502523,0.006307,0.001518,0.006352
95.542512,0.006978,0.003297,0.006533
95.572503,-0.000578,0.004128,0.007823
95.602495,-0.000011,0.002673,0.006310
95.642483,0.006764,0.000429,0.006838
95.672475,0.005930,-0.000050,0.008478
95.702466,0.005671,0.000987,0.007239
95.742454,0.009762,-0.001491,0.008809
95.772446,0.009822,0.001032,0.005379
95.802437,0.009035,0.003145,0.008332
95.842426,0.007014,0.000569,0.008016
95.872417,0.003938,0.000378,0.008706
95.902408,0.003943,0.001324,0.006650
95.942397,0.002751,0.001970,0.007964
95.972388,0.002286,0.004309,0.008872
96.002380,0.005614,0.001814,0.005200
96.042368,0.010285,-0.001931,0.006718
96.072359,0.008383,0.002335,0.005461
96.112348,0.009845,0.002054,0.005877
96.142339,0.007506,-0.000077,0.006189
96.172330,0.009652,0.002978,0.005792
96.212318,0.012906,0.001164,0.009034
96.242310,0.010848,0.000913,0.005968
96.272301,0.008699,0.002217,0.006327
96.302292,0.008612,-0.000822,0.009021
96.342281,0.006107,0.001705,0.007986
96.372272,0.009583,-0.000158,0.007950
96.402264,0.008558,-0.000037,0.008449
96.442252,0.011953,0.000445,0.009476
96.472243,0.012687,-0.000771,0.008452
96.512232,0.007514,-0.000784,0.005049
96.542223,0.005324,0.003912,0.008653
96.572215,0.003933,0.001713,0.008788
96.612203,0.005076,0.002281,0.005957
96.642194,0.007767,0.002339,0.009208
96.672186,0.008124,-0.001864,0.007546
96.702177,0.004662,0.002203,0.008526
96.742166,0.006892,-0.000631,0.005336
96.772157,0.009068,0.001802,0.007923
96.812145,0.008042,0.002935,0.007458
96.842137,0.010036,0.003343,0.005401
96.872128,0.006096,-0.000576,0.007952
96.912117,0.007690,0.002406,0.005422
96.942108,0.007396,-0.001242,0.007917
96.972099,0.008896,-0.001170,0.007463
97.012088,0.007869,0.000522,0.008105
97.042079,0.007541,-0.000257,0.008308
97.072071,0.006683,0.003270,0.006166
97.112059,0.005117,0.003195,0.007363
97.142050,0.007810,0.000935,0.009548
97.172042,0.008123,0.001772,0.007926
97.212030,0.003437,0.004350,0.008134
97.242022,0.002798,0.003204,0.007793
97.272013,0.006671,0.000365,0.007812
97.312001,0.006589,-0.000521,0.008591
97.341993,0.008491,-0.001561,0.005922
97.371984,0.013687,-0.002833,0.009723
97.411973,0.006044,0.001496,0.008132
97.441964,0.006683,0.005038,0.006535
97.471955,0.000467,0.007558,0.005173
97.511944,0.005038,0.000603,0.006838
97.541935,0.002297,0.002257,0.008939
97.571927,0.004780,-0.002408,0.005504
97.611915,0.004421,-0.001748,0.007555
97.641906,0.009796,-0.002886,0.009273
97.671898,0.017055,-0.001456,0.008434
97.711886,0.016750,-0.004843,0.003778
97.741878,0.018317,-0.004638,0.006502
97.771869,0.011226,-0.004207,0.009237
97.811857,0.011075,-0.001538,0.008163
97.841849,0.008780,0.000493,0.007629
97.871840,0.011924,-0.001133,0.009358
97.911829,0.010740,-0.000831,0.005449
97.941820,0.001405,0.004758,0.004847
97.971811,0.000206,0.003219,0.006638
98.011800,-0.004588,0.005069,0.008885
98.041791,-0.000162,0.000535,0.005882
98.071783,0.003763,0.002081,0.007634
98.111771,0.009280,0.002888,0.008612
98.141762,0.009500,0.001162,0.008805
98.171754,0.013167,0.001530,0.007794
98.211742,0.011024,0.001008,0.007983
98.241734,0.005998,0.001061,0.007909
98.271725,0.007659,0.001829,0.007176
98.311713,0.010700,-0.000269,0.006115
98.341705,0.006661,-0.001164,0.007858
98.371696,0.008472,0.000157,0.005922
98.411685,0.004776,0.001654,0.007183
98.441676,0.005653,0.001492,0.006399
98.471667,0.003266,0.000836,0.005529
98.511656,0.007818,-0.001757,0.005154
98.541647,0.008662,-0.000852,0.005682
98.571639,0.008339,0.002473,0.003826
98.611627,0.008716,0.001075,0.008089
98.641618,0.006115,0.001793,0.007877
98.671610,0.004510,-0.001282,0.007354
98.711598,0.006629,-0.001387,0.008377
98.741590,0.010219,0.001073,0.007877
98.771581,0.008987,-0.001673,0.006448
98.811569,0.007311,-0.001354,0.009396
98.841561,0.006967,-0.001052,0.007868
98.871552,0.009032,0.002977,0.005083
98.911541,0.009135,-0.001508,0.004291
98.941532,0.008095,0.005612,0.005714
98.971523,0.012449,-0.001157,0.007578
99.011512,0.009390,0.001336,0.008579
99.041503,0.009390,0.001523,0.006724
99.071494,0.000406,0.002410,0.007707
99.111483,0.004530,-0.000795,0.008398
99.141474,0.003604,0.003936,0.007529
99.171466,0.000537,0.001948,0.006685
99.211454,-0.000440,0.004987,0.009263
99.241445,0.001490,0.005329,0.009186
99.271437,0.000129,0.006850,0.007972
99.311425,0.011948,-0.001038,0.010205
99.341417,0.014444,0.001100,0.006367
99.371408,0.006983,0.000864,0.007632
99.411396,0.003366,0.000487,0.008587
99.441388,-0.002125,0.001431,0.006286
99.471379,-0.002022,0.001248,0.007801
99.511368,-0.000228,0.000952,0.007277
99.541359,0.007383,0.004007,0.006899
99.571350,0.009183,0.001432,0.006583
99.611339,0.017172,-0.001453,0.007363
99.641330,0.014079,0.001830,0.007974
99.671322,0.012953,0.000721,0.008257
99.711310,0.005109,0.000080,0.006402
99.741301,0.009921,0.001963,0.005438
99.771293,0.006676,0.001395,0.009770
99.811281,0.004467,0.000694,0.008331
99.841273,0.007480,-0.000077,0.006293
99.871264,0.006170,0.001969,0.006090
99.911252,0.006342,0.000364,0.007943
99.941244,0.007546,-0.002918,0.008894
99.971235,0.008600,0.001181,0.006650
100.011224,0.009121,0.002036,0.008004
100.041215,0.009370,-0.001210,0.007636
100.071206,0.011107,0.001277,0.006011
100.111195,0.006338,0.003566,0.006159
100.141186,0.002721,0.002009,0.005213
100.171177,0.004294,0.003582,0.007360
100.211166,0.004772,0.000208,0.006499
100.241157,0.008389,0.004434,0.005486
100.271149,0.006420,0.000668,0.009028
100.311137,0.006235,0.000017,0.008841
100.341128,0.007128,0.000509,0.006472
100.371120,0.010088,0.001150,0.007057
100.411108,0.009782,0.001656,0.007262
100.441100,0.008971,0.002711,0.006759
100.471091,0.006001,0.002107,0.004363
100.511079,0.009299,0.001693,0.008921
100.541071,0.005174,0.002951,0.009109
100.571062,0.009941,0.000234,0.004965
100.611051,0.005988,0.000021,0.005202
100.641042,0.010362,0.002276,0.007484
100.671033,0.008449,0.002684,0.006354
100.711022,0.008632,-0.001464,0.006969
100.741013,0.007871,0.000671,0.005604
100.771004,0.008756,-0.000350,0.008534
100.810993,0.013360,0.000716,0.005348
100.840984,0.009812,0.001460,0.007037
100.870976,0.010025,0.004219,0.010139
100.910964,0.002431,0.005544,0.004688
100.940955,0.004005,0.001370,0.010097
100.970947,0.004801,0.001099,0.007502
101.010935,0.010600,0.002170,0.009424
101.040927,0.011805,0.001031,0.006173
101.070918,0.007954,-0.001157,0.006664
101.110906,0.005400,-0.001315,0.009804
101.140898,0.004193,0.001484,0.007393
101.170889,0.008127,0.001750,0.006072
101.210879,0.005543,0.001737,0.007655
101.240870,0.007882,0.002927,0.008458
101.270861,0.010544,0.001124,0.007205
101.310850,0.007592,0.000312,0.008630
101.340841,0.012215,0.000332,0.008189
101.370832,0.004922,0.001051,0.006699
101.410821,0.006930,0.001724,0.006536
101.440812,0.007840,0.000952,0.005988
101.470804,0.005389,-0.000531,0.007914
101.510792,0.011169,0.001081,0.006561
101.540783,0.012898,-0.001684,0.004803
101.570775,0.009139,-0.000320,0.007008
101.610763,0.010274,-0.000635,0.007667
101.640755,0.008981,-0.003239,0.006386
101.670746,0.006014,-0.000023,0.009778
101.710734,0.002145,0.003347,0.008044
101.740726,0.004574,0.003034,0.006377
101.770717,0.004420,0.000406,0.006663
101.810706,0.006851,0.003059,0.007689
101.840697,0.009000,-0.000254,0.008752
101.870688,0.008546,0.000738,0.006837
101.910677,0.010810,0.001341,0.008509
101.940668,0.008882,-0.000346,0.008338
101.970659,0.008496,-0.001408,0.007350
102.010648,0.008098,0.001033,0.007204
102.040639,0.009864,0.000380,0.006914
102.070631,0.008702,0.001860,0.008386
102.110619,0.013081,-0.000724,0.004856
102.140610,0.002604,0.002184,0.005576
102.170602,0.007966,0.001176,0.005763
102.210589,0.008219,0.000085,0.006347
102.240581,0.005347,0.002234,0.003865
102.270572,0.008007,0.000281,0.008633
102.310560,0.008243,-0.000303,0.008406
102.340552,0.011280,0.002932,0.007321
102.370543,0.010686,-0.001425,0.007765
102.410532,0.008261,0.000070,0.005475
102.440523,0.003465,0.001312,0.008128
102.470514,0.003990,0.001589,0.007109
102.510503,0.004932,-0.000134,0.005268
102.540494,0.007403,-0.000273,0.007572
102.570485,0.009179,0.000303,0.007733
102.610474,0.011038,0.000136,0.006750
102.640465,0.006589,0.003477,0.006521
102.670457,0.007174,0.002006,0.007526
102.710445,0.005703,0.002455,0.005604
102.740436,0.006694,0.001517,0.007336
102.770428,0.007900,0.003949,0.006509
102.810416,0.009640,0.002596,0.007574
102.840407,0.010153,0.000826,0.004453
102.870399,0.008960,0.000002,0.008827
102.910387,0.005562,-0.000025,0.006033
102.940379,0.006128,-0.000512,0.008541
102.970370,0.011191,0.001117,0.009845
103.010358,0.010875,-0.000715,0.007093
103.040350,0.008711,0.000864,0.008816
103.070341,0.010966,0.000938,0.007286
103.110330,0.008133,0.000683,0.005669
103.140321,0.010579,0.003442,0.006460
103.170312,0.007219,0.000013,0.010357
103.210302,0.007027,0.001910,0.005944
103.240293,0.006836,0.001458,0.008526
103.270284,0.008545,-0.000068,0.007809
103.310273,0.008907,-0.001801,0.006481
103.340264,0.010771,0.000720,0.005082
103.370256,0.010290,-0.001715,0.006195
103.410244,0.009943,-0.000341,0.005892
103.440235,0.007735,0.001833,0.007932
103.470227,0.008493,0.001827,0.007999
103.510215,0.008348,-0.000514,0.006322
103.540207,0.007110,-0.002879,0.006310
103.570198,0.008264,-0.000920,0.008244
103.610186,0.010692,-0.005011,0.007849
103.640178,0.009182,-0.000336,0.006802
103.670169,0.009182,-0.001405,0.005934
103.710158,0.009227,-0.002299,0.006942
103.740149,0.006566,0.001540,0.008789
103.770140,0.009611,0.000565,0.006265
103.810129,0.004284,-0.000704,0.009589
103.840120,0.006679,-0.001479,0.007300
103.870111,0.007194,0.000765,0.007848
103.910100,0.009824,0.002405,0.006329
103.940091,0.007037,0.001488,0.007343
103.970083,0.007464,0.000956,0.007026
104.010071,0.005907,-0.001151,0.007263
104.040062,0.008125,-0.002773,0.008363
104.070054,0.005918,0.005016,0.008851
104.110042,0.005925,0.001777,0.007599
104.140033,0.003236,-0.001769,0.007247
104.170025,0.004372,0.001007,0.007338
104.210013,0.011034,0.000490,0.008192
104.240005,0.004579,0.000822,0.006103
104.269996,0.007162,0.000377,0.005274
104.309984,0.007919,0.000546,0.006257
104.339976,0.008817,0.001668,0.007946
104.369967,0.006252,0.000362,0.005987
104.409956,0.008511,-0.001208,0.007740
104.439947,0.002771,0.003027,0.006625
104.469938,0.008457,0.000092,0.009018
104.509927,0.006425,0.000578,0.007483
104.539918,0.007367,-0.000961,0.007053
104.569909,0.008773,-0.001163,0.007699
104.609898,0.007434,0.001327,0.007037
104.639889,0.006162,-0.000266,0.006498
104.669881,0.009015,-0.001647,0.007383
104.709869,0.006207,0.002307,0.007824
104.739860,0.005156,0.000384,0.009029
104.769852,0.006732,0.000322,0.006935
104.809840,0.006342,0.002606,0.008127
104.839832,0.008716,-0.003195,0.006782
104.869823,0.006998,0.001304,0.005939
104.909811,0.004948,0.001978,0.011251
104.939803,0.006822,0.002052,0.007650
104.969794,0.003353,0.001003,0.006946
105.009783,0.007880,0.003025,0.005227
105.039774,0.008524,0.002098,0.007608
105.069765,0.007993,0.004020,0.007941
105.109754,0.006159,-0.000588,0.005209
105.139745,0.010184,0.001308,0.007029
105.169736,0.006107,0.002172,0.006108
105.209725,0.006998,-0.000228,0.005964
105.239716,0.005953,0.000903,0.003815
105.269708,0.007777,0.001019,0.008872
105.309696,0.006223,-0.000361,0.009285
105.339687,0.006962,0.002658,0.006960
105.369679,0.005071,0.000361,0.009512
105.409667,0.009886,-0.002413,0.007559
105.439659,0.013098,0.000820,0.007453
105.469650,0.009024,-0.000384,0.006871
105.509638,0.007166,0.000738,0.006675
105.539630,0.005152,0.005508,0.007132
105.569621,0.009017,0.000467,0.003777
105.609609,0.008299,0.000211,0.005802
105.639601,0.010127,-0.000595,0.006287
105.669592,0.008548,-0.000969,0.006244
105.709581,0.009493,0.000799,0.009275
105.739572,0.006862,-0.000617,0.007503
105.769563,0.007474,0.001947,0.008381
105.809552,0.006075,0.002204,0.007526
105.839543,0.010566,-0.002072,0.006037
105.869534,0.008059,-0.001715,0.008357
105.909523,0.009338,0.000658,0.005586
105.939514,0.008936,0.000924,0.007670
105.969506,0.012746,0.000640,0.007888
106.009494,0.008417,0.001862,0.008223
106.039485,0.007954,0.000014,0.006755
106.069477,0.009833,-0.000709,0.006145
106.109465,0.007193,0.001875,0.008657
106.139457,0.009129,-0.000892,0.007762
106.169448,0.006547,0.002023,0.006535
106.209440,0.004154,0.001411,0.009121
106.239432,0.006436,0.003131,0.008604
106.269423,0.006166,-0.000476,0.006385
106.309412,0.007501,0.000397,0.006002
106.339403,0.010178,0.000466,0.007190
106.369394,0.009232,-0.001699,0.008477
106.409383,0.007710,-0.000436,0.005740
106.439374,0.009462,0.002398,0.006961
106.469365,0.007630,-0.000475,0.007488
106.509354,0.006877,-0.001064,0.006723
106.539345,0.008533,0.001217,0.005192
106.569337,0.007256,-0.002099,0.009128
106.609325,0.008900,-0.001028,0.005899
106.639316,0.008944,0.003311,0.007444
106.669308,0.005422,-0.000181,0.007743
106.709296,0.008480,0.000146,0.006081
106.739287,0.008015,0.001696,0.006393
106.769279,0.006590,-0.002767,0.006820
106.809267,0.007404,-0.000706,0.009959
106.839259,0.009157,0.000664,0.009788
106.869250,0.009036,0.000211,0.006996
106.909238,0.009000,-0.001511,0.008112
