time_tick,acc_X_value,acc_Y_value,acc_Z_value
0.002952,0.264718,-0.996622,-9.713623
0.036250,0.325623,-0.958313,-9.928211
0.069612,0.314849,-0.997370,-9.712127
0.103012,0.297041,-0.976720,-9.740858
0.136258,0.274296,-0.985249,-9.774977
0.169607,0.277139,-0.993779,-9.743851
0.202941,0.260079,-0.987643,-9.739810
0.236283,0.255441,-0.989589,-9.770787
0.269610,0.268609,-0.993480,-9.749687
0.303018,0.259780,-0.984202,-9.752081
0.336278,0.253944,-0.997819,-9.755822
0.369615,0.259182,-0.979563,-9.734723
0.403021,0.263970,-0.989290,-9.738314
0.436270,0.273098,-0.987045,-9.733525
0.469604,0.268908,-0.986596,-9.716317
0.502976,0.265916,-0.994377,-9.739212
0.536275,0.270106,-0.986746,-9.741307
0.569605,0.254393,-0.994976,-9.746095
0.602943,0.277139,-1.002009,-9.743851
0.636275,0.256039,-0.994826,-9.762556
0.669610,0.253645,-0.973876,-9.743252
0.703023,0.244966,-0.964598,-9.707338
0.736277,0.232545,-0.965945,-9.744300
0.769649,0.243768,-0.968788,-9.760611
0.803021,0.237633,-0.969237,-9.756421
0.836274,0.238980,-0.980461,-9.823162
0.869610,0.260379,-0.959660,-9.703597
0.902964,0.269657,-0.978964,-9.735471
0.936272,0.229253,-0.972978,-9.764053
0.969688,0.240776,-0.984501,-9.763454
1.003052,0.267412,-0.960558,-9.742504
1.036275,0.289858,-0.937812,-9.752231
1.069610,0.259032,-0.963401,-9.793233
1.103003,0.248707,-0.960708,-9.772133
1.136346,0.282825,-0.952777,-9.762706
1.169612,0.333554,-0.927637,-9.658704
1.203004,0.357946,-0.931527,-9.678307
1.236278,0.269507,-0.968788,-9.829896
1.269623,0.262623,-0.972829,-9.838126
1.303006,0.347321,-0.915216,-9.655262
1.336287,0.373060,-0.871969,-9.624436
1.369615,0.344179,-0.929881,-9.762855
1.403014,0.314849,-0.942900,-9.848002
1.436281,0.357946,-0.918508,-9.751333
1.469622,0.346573,-0.937064,-9.697910
1.503007,0.345526,-0.941254,-9.720058
1.537037,0.354953,-0.923447,-9.707488
1.569614,0.356001,-0.935717,-9.720955
1.603006,0.346124,-0.939159,-9.759863
1.636286,0.332357,-0.945743,-9.776772
1.669618,0.313652,-0.946342,-9.768692
1.702990,0.315896,-0.955620,-9.754924
1.736272,0.310509,-0.941404,-9.740708
1.769616,0.321134,-0.945294,-9.738913
1.802982,0.313203,-0.949784,-9.758665
1.836292,0.329813,-0.950682,-9.761359
1.869627,0.320984,-0.952777,-9.767195
1.902993,0.315747,-0.954423,-9.742803
1.936281,0.331010,-0.942302,-9.738613
1.969618,0.335948,-0.955770,-9.749537
2.003069,0.336397,-0.941553,-9.734723
2.036281,0.330711,-0.951430,-9.750136
2.069656,0.324127,-0.947240,-9.743851
2.103022,0.336397,-0.946043,-9.735172
2.136373,0.343431,-0.933323,-9.736818
2.169626,0.347770,-0.934670,-9.731580
2.203014,0.350464,-0.939608,-9.734124
2.236288,0.348818,-0.940805,-9.736668
2.269620,0.343730,-0.932874,-9.739511
2.302871,0.351661,-0.937513,-9.726492
2.336292,0.346124,-0.936316,-9.735321
2.369620,0.341635,-0.947389,-9.740858
2.403024,0.347321,-0.940356,-9.734423
2.436327,0.340737,-0.936316,-9.742504
2.469618,0.342533,-0.953674,-9.746245
2.502951,0.342832,-0.946791,-9.737416
2.536184,0.336996,-0.952328,-9.730533
2.569617,0.337744,-0.944696,-9.744449
2.602939,0.335499,-0.949335,-9.754775
2.636275,0.337445,-0.953824,-9.740708
2.669129,0.338343,-0.943050,-9.745198
2.702950,0.339689,-0.948886,-9.744449
2.735758,0.335200,-0.934371,-9.744898
2.769616,0.347321,-0.938411,-9.738464
2.802945,0.350763,-0.944247,-9.748041
2.836275,0.345376,-0.942002,-9.741457
2.869605,0.346573,-0.939608,-9.741157
2.902987,0.346423,-0.944995,-9.738015
2.936275,0.345526,-0.943648,-9.745048
2.969610,0.349416,-0.933024,-9.740110
3.002946,0.347321,-0.943798,-9.740559
3.036275,0.347471,-0.931827,-9.741756
3.069611,0.350015,-0.939758,-9.738164
3.102981,0.350913,-0.943349,-9.754027
3.136276,0.338043,-0.938860,-9.745347
3.169612,0.336098,-0.946641,-9.738464
3.203006,0.352858,-0.951430,-9.743103
3.236275,0.343730,-0.947838,-9.738164
3.269614,0.328167,-0.941553,-9.735321
3.302939,0.339540,-0.943648,-9.739661
3.336285,0.334901,-0.945145,-9.744000
3.369608,0.340587,-0.943798,-9.739511
3.402947,0.343281,-0.941254,-9.732628
3.436271,0.344328,-0.944696,-9.742504
3.469612,0.337894,-0.938860,-9.746395
3.502937,0.343431,-0.935568,-9.749837
3.536268,0.344927,-0.939907,-9.734723
3.569624,0.338343,-0.941553,-9.738314
3.603015,0.348069,-0.944696,-9.740110
3.636276,0.336547,-0.935119,-9.745946
3.669612,0.349716,-0.947689,-9.748190
3.703034,0.346573,-0.938561,-9.751183
3.736273,0.352110,-0.945444,-9.741457
3.769625,0.349117,-0.944097,-9.734723
3.803020,0.346124,-0.934371,-9.747742
3.836281,0.349716,-0.938261,-9.745946
3.869613,0.344628,-0.942451,-9.755673
3.903017,0.343431,-0.947539,-9.737566
3.936276,0.341485,-0.943499,-9.748789
3.969619,0.341784,-0.938561,-9.745796
4.003099,0.344628,-0.936017,-9.747442
4.036320,0.344179,-0.937064,-9.742354
4.069600,0.342832,-0.946192,-9.734573
4.102973,0.348518,-0.953674,-9.738015
4.136342,0.340887,-0.950083,-9.750435
4.169656,0.340737,-0.948736,-9.729784
4.202918,0.343879,-0.949784,-9.735620
4.236334,0.347621,-0.939009,-9.748340
4.269533,0.353008,-0.937962,-9.752979
4.302940,0.346124,-0.940207,-9.743252
4.335423,0.341635,-0.942900,-9.743252
4.369590,0.342533,-0.935568,-9.742953
4.402555,0.336697,-0.942900,-9.749837
4.435894,0.342533,-0.945145,-9.742504
4.469067,0.353157,-0.941104,-9.745946
4.502934,0.343879,-0.943948,-9.736967
4.536269,0.344478,-0.949484,-9.739362
4.569661,0.341485,-0.936914,-9.739810
4.602064,0.348967,-0.930779,-9.725744
4.636289,0.333404,-0.949634,-9.753727
4.669599,0.347920,-0.943199,-9.724248
4.703008,0.342084,-0.938261,-9.738613
4.736335,0.357497,-0.939458,-9.751782
4.769596,0.335799,-0.947988,-9.754924
4.802935,0.345825,-0.938112,-9.730682
4.836284,0.343281,-0.942451,-9.744749
4.869670,0.342982,-0.940057,-9.746993
4.903006,0.345675,-0.939907,-9.741457
4.936273,0.347172,-0.942900,-9.747592
4.969680,0.342832,-0.947240,-9.730682
5.003052,0.338193,-0.946342,-9.747293
5.036320,0.349716,-0.934819,-9.744449
5.069592,0.351511,-0.931228,-9.752530
5.103035,0.345077,-0.940356,-9.753278
5.136289,0.344179,-0.940805,-9.748490
5.169609,0.342233,-0.945294,-9.742354
5.203003,0.345974,-0.940207,-9.742803
5.236364,0.354953,-0.911326,-9.733974
5.269627,0.370067,-0.967292,-9.757917
5.302995,0.330711,-0.953525,-9.766148
5.336333,0.344328,-0.934670,-9.715718
5.369591,0.352559,-0.933772,-9.752380
5.402998,0.341485,-0.934520,-9.712875
5.436279,0.350913,-0.942451,-9.730832
5.469608,0.343431,-0.939758,-9.753578
5.503004,0.352409,-0.939309,-9.736818
5.536298,0.346573,-0.928834,-9.721704
5.569013,0.342084,-0.939009,-9.756720
5.603022,0.329963,-0.937363,-9.745796
5.636284,0.345825,-0.940207,-9.738763
5.669600,0.354504,-0.945594,-9.746844
5.703004,0.342533,-0.934520,-9.740708
5.736272,0.344478,-0.947389,-9.743851
5.769604,0.352708,-0.940057,-9.749537
5.803010,0.355552,-0.935568,-9.740110
5.836295,0.348069,-0.937962,-9.742953
5.869594,0.352708,-0.935418,-9.736967
5.902979,0.344777,-0.949335,-9.731430
5.936287,0.347471,-0.934819,-9.738314
5.969633,0.352559,-0.937663,-9.733974
6.003083,0.350913,-0.932724,-9.737566
6.036286,0.337594,-0.931228,-9.735022
6.069600,0.344029,-0.941853,-9.743552
6.103010,0.345376,-0.937513,-9.745796
6.136287,0.351960,-0.935867,-9.739960
6.169663,0.345974,-0.946192,-9.752829
6.203015,0.355402,-0.939309,-9.746544
6.236328,0.342832,-0.935867,-9.734723
6.269603,0.339540,-0.942601,-9.736967
6.303021,0.346124,-0.942302,-9.735770
6.336270,0.349566,-0.947389,-9.739810
6.369622,0.337295,-0.934371,-9.733974
6.402882,0.345526,-0.940805,-9.745497
6.436220,0.340288,-0.944995,-9.747293
6.469658,0.346423,-0.932126,-9.730982
6.502941,0.333704,-0.933024,-9.737117
6.535421,0.339989,-0.938112,-9.747891
6.569652,0.334751,-0.949634,-9.750136
6.602986,0.344179,-0.937214,-9.734274
6.636328,0.348668,-0.945594,-9.730982
6.669659,0.341934,-0.939159,-9.739960
6.702947,0.345077,-0.938261,-9.736668
6.735763,0.340737,-0.943499,-9.725744
6.769593,0.344478,-0.934819,-9.743252
6.802972,0.345675,-0.943948,-9.741905
6.836291,0.336248,-0.948587,-9.746844
6.869658,0.348818,-0.930779,-9.728288
6.902986,0.347321,-0.945893,-9.744599
6.936270,0.343131,-0.940506,-9.745946
6.969595,0.342682,-0.940805,-9.740858
7.003071,0.345226,-0.945145,-9.745048
7.036278,0.347471,-0.946192,-9.742055
7.069598,0.352409,-0.936615,-9.737566
7.102944,0.348518,-0.941404,-9.741457
7.136160,0.347621,-0.937962,-9.735770
7.169608,0.343281,-0.935119,-9.733525
7.202939,0.341635,-0.937513,-9.741457
7.236322,0.347321,-0.943648,-9.743851
7.269595,0.351811,-0.940356,-9.731281
7.302941,0.344777,-0.930629,-9.730982
7.336277,0.337594,-0.937812,-9.740110
7.369603,0.342383,-0.933323,-9.741157
7.402942,0.354953,-0.932575,-9.749687
7.436278,0.350763,-0.941553,-9.732478
7.469619,0.347321,-0.939758,-9.734723
7.502955,0.344628,-0.937064,-9.743252
7.536277,0.346723,-0.933473,-9.733226
7.569603,0.351511,-0.937064,-9.732478
7.602986,0.351062,-0.935418,-9.739062
7.635852,0.341186,-0.940506,-9.737267
7.669600,0.345376,-0.937363,-9.741307
7.703022,0.346723,-0.947240,-9.738464
7.736273,0.347321,-0.941553,-9.732927
7.769609,0.345226,-0.935717,-9.729635
7.802977,0.346274,-0.943499,-9.741157
7.836275,0.343879,-0.930031,-9.740708
7.869601,0.348818,-0.940656,-9.740708
7.902976,0.354803,-0.936914,-9.738763
7.936285,0.350913,-0.936017,-9.742803
7.969603,0.345526,-0.933772,-9.739062
8.002553,0.354803,-0.943349,-9.733226
8.036284,0.342982,-0.948138,-9.740259
8.069610,0.339839,-0.938710,-9.745497
8.102395,0.358844,-0.933024,-9.739362
8.136280,0.349566,-0.946791,-9.749088
8.169606,0.346723,-0.937064,-9.735022
8.203015,0.352858,-0.939608,-9.743701
8.236285,0.346573,-0.935867,-9.733525
8.269661,0.346573,-0.948138,-9.751333
8.302964,0.345675,-0.934221,-9.755373
8.336282,0.347022,-0.935717,-9.729635
8.369588,0.342084,-0.937064,-9.735471
8.402941,0.354354,-0.937812,-9.742354
8.436281,0.344029,-0.937363,-9.748190
8.469594,0.338792,-0.939758,-9.744749
8.502938,0.351811,-0.939159,-9.750734
8.536271,0.344029,-0.938710,-9.736069
8.569654,0.348069,-0.947240,-9.739062
8.602952,0.355103,-0.947539,-9.745946
8.636332,0.344478,-0.939758,-9.742953
8.669610,0.339839,-0.942601,-9.751183
8.702917,0.349117,-0.943499,-9.736369
8.736272,0.345226,-0.941553,-9.740409
8.769597,0.345226,-0.941254,-9.734723
8.802909,0.337894,-0.945893,-9.733525
8.836278,0.346872,-0.933622,-9.747442
8.869596,0.351960,-0.944397,-9.742654
8.902925,0.345077,-0.940057,-9.737715
8.935580,0.340438,-0.948587,-9.741157
8.968816,0.345226,-0.938710,-9.740110
9.002992,0.345526,-0.939309,-9.743252
9.036351,0.346274,-0.944846,-9.737117
9.069639,0.347621,-0.939608,-9.737267
9.102929,0.339390,-0.942302,-9.734274
9.136319,0.339989,-0.944546,-9.734423
9.170227,0.348518,-0.941254,-9.729934
9.202928,0.345526,-0.939159,-9.733226
9.236344,0.344777,-0.943648,-9.737267
9.270132,0.348219,-0.940356,-9.740858
9.302926,0.343730,-0.939458,-9.729784
9.336336,0.358245,-0.942451,-9.741905
9.370058,0.345974,-0.943199,-9.751034
9.403053,0.340887,-0.939309,-9.739661
9.436325,0.347471,-0.942302,-9.742803
9.469957,0.342233,-0.941853,-9.740259
9.502988,0.349267,-0.933922,-9.735022
9.536335,0.346872,-0.939608,-9.747293
9.570016,0.333554,-0.937962,-9.729186
9.602994,0.348668,-0.939907,-9.742055
9.636312,0.344179,-0.943499,-9.744898
9.670103,0.340438,-0.935119,-9.734274
9.702996,0.345675,-0.947389,-9.746095
9.736346,0.335499,-0.942451,-9.741457
9.770003,0.340288,-0.943349,-9.743552
9.802994,0.340587,-0.940656,-9.748939
9.836345,0.347471,-0.938860,-9.730533
9.869960,0.350763,-0.945294,-9.739810
9.902990,0.346124,-0.939009,-9.741905
9.936346,0.349566,-0.941553,-9.733376
9.969817,0.345526,-0.941104,-9.738015
10.002993,0.338043,-0.942900,-9.740409
10.036312,0.341635,-0.947689,-9.744300
10.069836,0.345526,-0.947689,-9.740858
10.102999,0.334003,-0.940955,-9.740110
10.136350,0.337894,-0.940805,-9.748041
10.169893,0.344328,-0.938411,-9.740858
10.202999,0.342982,-0.940356,-9.749238
10.236279,0.345825,-0.937214,-9.725445
10.269595,0.354205,-0.942451,-9.739362
10.302997,0.343730,-0.940207,-9.743851
10.336276,0.339540,-0.939458,-9.750136
10.370107,0.351960,-0.948736,-9.736069
10.402932,0.345675,-0.946641,-9.738913
10.436334,0.345675,-0.932724,-9.747742
10.470139,0.350164,-0.938411,-9.737267
10.502990,0.347920,-0.941553,-9.736369
10.536351,0.347172,-0.938112,-9.733376
10.569610,0.346872,-0.942451,-9.736668
10.602931,0.355851,-0.944846,-9.741008
10.636345,0.354953,-0.928534,-9.734872
10.670143,0.350613,-0.948736,-9.734124
10.702994,0.345226,-0.940506,-9.738763
10.736320,0.342233,-0.936914,-9.739212
10.769936,0.346573,-0.930629,-9.743252
10.802985,0.348518,-0.938561,-9.740559
10.836350,0.356449,-0.939458,-9.739960
10.870161,0.355851,-0.934071,-9.745946
10.902926,0.347172,-0.944247,-9.735920
10.936344,0.339390,-0.937962,-9.742654
10.969875,0.354953,-0.945145,-9.745347
11.003027,0.342982,-0.941703,-9.729186
11.036335,0.350015,-0.935717,-9.734723
11.069730,0.356898,-0.945145,-9.738763
11.103000,0.345526,-0.936017,-9.737566
11.136350,0.346274,-0.938261,-9.728438
11.169637,0.341336,-0.938561,-9.735321
11.203005,0.342383,-0.933772,-9.745796
11.236245,0.347621,-0.936914,-9.749986
11.269454,0.348967,-0.931827,-9.742205
11.303007,0.340438,-0.945893,-9.736518
11.336181,0.338941,-0.944546,-9.743103
11.369878,0.343580,-0.942900,-9.749238
11.402628,0.344029,-0.935867,-9.738015
11.436370,0.353457,-0.939758,-9.742055
11.469547,0.344179,-0.936017,-9.728887
11.502897,0.349267,-0.947539,-9.737267
11.536279,0.349267,-0.936615,-9.738613
11.569889,0.353606,-0.935568,-9.743552
11.602928,0.353307,-0.940356,-9.749088
11.636310,0.339839,-0.943648,-9.738613
11.669666,0.342383,-0.945893,-9.744749
11.702921,0.350314,-0.940805,-9.751632
11.736305,0.353307,-0.947988,-9.748340
11.769841,0.351062,-0.944097,-9.744749
11.802910,0.337445,-0.947988,-9.740259
11.836309,0.344029,-0.937812,-9.741905
11.869738,0.349117,-0.947838,-9.751183
11.902948,0.336098,-0.934520,-9.745347
11.936350,0.341186,-0.939458,-9.747891
11.969823,0.334153,-0.944846,-9.736069
12.003022,0.336248,-0.942002,-9.741307
12.036283,0.351212,-0.944546,-9.747592
12.069589,0.347621,-0.944097,-9.739362
12.102955,0.343131,-0.943948,-9.733825
12.136272,0.339540,-0.940207,-9.746245
12.169573,0.344927,-0.947988,-9.743701
12.202976,0.346423,-0.938112,-9.747143
12.235746,0.338193,-0.936914,-9.737416
12.269608,0.341186,-0.938860,-9.743103
12.302948,0.345226,-0.936466,-9.733974
12.336277,0.350763,-0.939009,-9.745347
12.369591,0.343879,-0.933922,-9.739362
12.402982,0.352259,-0.947090,-9.733675
12.436347,0.341934,-0.939309,-9.744300
12.469582,0.347022,-0.937513,-9.746544
12.502999,0.342533,-0.945145,-9.738763
12.536344,0.342682,-0.943798,-9.741606
12.569622,0.352559,-0.943798,-9.741457
12.603039,0.344628,-0.938710,-9.741756
12.635500,0.343730,-0.946791,-9.742205
12.669610,0.340737,-0.938561,-9.728587
12.702976,0.343431,-0.940057,-9.738314
12.736316,0.345675,-0.944247,-9.754625
12.769598,0.341186,-0.944546,-9.739960
12.802179,0.343431,-0.939009,-9.741157
12.836282,0.337445,-0.938860,-9.740708
12.869595,0.351511,-0.944846,-9.747143
12.903027,0.341934,-0.933922,-9.743552
12.936289,0.341336,-0.949335,-9.746694
12.969601,0.345974,-0.940506,-9.749537
13.003018,0.341635,-0.939309,-9.742055
13.036273,0.348518,-0.936466,-9.742205
13.069656,0.353008,-0.946492,-9.741008
13.102881,0.339390,-0.942601,-9.738015
13.136276,0.348219,-0.937962,-9.742504
13.168718,0.351362,-0.940656,-9.741905
13.202945,0.342383,-0.939309,-9.739810
13.235740,0.357647,-0.938411,-9.739062
13.269058,0.349416,-0.936615,-9.745647
13.302953,0.344927,-0.941404,-9.742803
13.335656,0.347022,-0.944097,-9.740858
13.369593,0.341485,-0.945743,-9.741756
13.403015,0.349267,-0.944546,-9.744898
13.436310,0.347172,-0.935717,-9.744749
13.469597,0.350015,-0.941703,-9.742055
13.502973,0.348219,-0.941254,-9.740110
13.536347,0.348818,-0.940955,-9.739511
13.569593,0.344628,-0.936166,-9.736967
13.602967,0.340288,-0.933922,-9.726642
13.636281,0.343131,-0.938112,-9.752829
13.669591,0.353756,-0.940805,-9.739661
13.702988,0.346573,-0.937962,-9.744599
13.736340,0.342084,-0.939159,-9.738613
13.769590,0.346274,-0.944696,-9.735022
13.803046,0.347321,-0.929881,-9.746694
13.836290,0.353756,-0.937962,-9.739960
13.869467,0.343431,-0.935568,-9.737715
13.903002,0.353756,-0.934670,-9.739661
13.936285,0.357048,-0.939608,-9.738314
13.969588,0.344777,-0.937363,-9.742055
14.003065,0.348369,-0.938561,-9.742953
14.036277,0.345526,-0.942601,-9.731879
14.069592,0.352858,-0.940805,-9.746694
14.103006,0.348668,-0.940057,-9.742953
14.136324,0.336697,-0.949634,-9.729335
14.169627,0.345077,-0.944097,-9.742354
14.202981,0.348219,-0.938411,-9.736219
14.236277,0.345077,-0.940207,-9.735022
14.269589,0.349117,-0.944247,-9.738015
14.303011,0.342682,-0.944097,-9.744000
14.336276,0.346423,-0.940356,-9.738913
14.369593,0.354354,-0.932276,-9.746245
14.402974,0.342233,-0.936316,-9.737117
14.436274,0.342982,-0.934520,-9.735920
14.469595,0.351212,-0.944247,-9.747592
14.502972,0.354803,-0.939907,-9.740858
14.536275,0.349716,-0.948736,-9.740559
14.569597,0.345077,-0.947838,-9.738763
14.602979,0.344478,-0.940656,-9.745198
14.636276,0.347022,-0.940356,-9.747891
14.669598,0.349865,-0.937812,-9.745497
14.702979,0.347471,-0.939907,-9.736369
14.736338,0.345226,-0.950831,-9.743252
14.769633,0.351661,-0.942302,-9.745946
14.803021,0.347621,-0.941404,-9.737715
14.836329,0.352858,-0.944995,-9.738314
14.869632,0.336996,-0.944846,-9.749388
14.903015,0.346872,-0.939758,-9.743851
14.936397,0.340138,-0.949784,-9.744000
14.969596,0.339390,-0.950831,-9.735471
15.003048,0.341036,-0.940955,-9.741756
15.036272,0.348369,-0.938112,-9.735920
15.069622,0.348518,-0.934371,-9.741606
15.102965,0.348069,-0.947539,-9.732628
15.136280,0.340138,-0.953525,-9.745347
15.169594,0.341485,-0.942302,-9.736818
15.202990,0.338492,-0.947689,-9.751483
15.236276,0.347920,-0.947240,-9.737715
15.269603,0.337445,-0.943648,-9.739661
15.303006,0.342982,-0.943499,-9.738314
15.336280,0.346274,-0.944995,-9.747143
15.369593,0.343879,-0.946791,-9.739661
15.402998,0.332058,-0.943499,-9.735321
15.436278,0.347172,-0.942152,-9.738164
15.469604,0.356300,-0.944097,-9.750734
15.503005,0.345526,-0.944696,-9.750136
15.536278,0.347770,-0.937363,-9.737117
15.569591,0.349716,-0.943199,-9.736219
15.602940,0.342084,-0.945294,-9.753727
15.636281,0.345526,-0.936166,-9.755074
15.669595,0.348219,-0.940207,-9.747592
15.702944,0.353457,-0.939758,-9.756122
15.736288,0.351212,-0.944696,-9.739960
15.769593,0.354055,-0.946492,-9.741457
15.802937,0.348818,-0.946492,-9.735321
15.836143,0.342383,-0.951729,-9.737715
15.869587,0.351811,-0.934371,-9.736069
15.902941,0.347920,-0.944397,-9.747143
15.936001,0.336547,-0.933173,-9.736369
15.969268,0.342832,-0.944995,-9.738464
16.003009,0.347471,-0.941404,-9.741905
16.035745,0.345376,-0.941853,-9.746694
16.069641,0.345376,-0.942002,-9.753129
16.102965,0.349117,-0.943648,-9.754625
16.136274,0.343879,-0.941404,-9.745198
16.169642,0.350763,-0.936615,-9.740559
16.202986,0.341784,-0.939608,-9.740409
16.236349,0.349566,-0.946342,-9.745946
16.269685,0.354354,-0.937513,-9.747891
16.303013,0.344328,-0.933772,-9.729635
16.335583,0.349716,-0.947988,-9.742055
16.369304,0.350464,-0.932874,-9.736668
16.402952,0.349117,-0.940506,-9.746544
16.436279,0.348518,-0.933473,-9.745946
16.469590,0.345376,-0.937812,-9.746544
16.502966,0.345974,-0.939309,-9.748340
16.536315,0.353756,-0.942751,-9.739511
16.569672,0.350763,-0.931677,-9.743552
16.602936,0.347770,-0.937064,-9.736518
16.636349,0.351362,-0.939458,-9.734423
16.669634,0.358245,-0.937214,-9.742953
16.702932,0.350763,-0.944995,-9.737715
16.736357,0.347022,-0.936166,-9.748490
16.769686,0.354803,-0.943199,-9.733226
16.802939,0.341934,-0.940805,-9.746694
16.836357,0.343879,-0.938561,-9.740110
16.869619,0.358245,-0.931827,-9.738913
16.902927,0.347022,-0.936615,-9.742354
16.936348,0.346124,-0.944397,-9.740259
16.969688,0.344328,-0.940506,-9.744599
17.003002,0.352559,-0.937363,-9.743701
17.036343,0.352409,-0.933323,-9.747143
17.069627,0.347172,-0.945594,-9.750435
17.102930,0.344628,-0.937363,-9.725445
17.136362,0.354654,-0.932276,-9.727839
17.169671,0.347621,-0.941703,-9.745946
17.202930,0.353157,-0.941254,-9.734723
17.236348,0.348518,-0.939309,-9.736967
17.269689,0.350164,-0.950083,-9.750585
17.302927,0.350613,-0.944397,-9.736668
17.336329,0.337445,-0.938411,-9.750136
17.369642,0.342832,-0.943948,-9.744150
17.402929,0.338792,-0.936017,-9.746993
17.436349,0.338193,-0.940057,-9.730682
17.469626,0.341934,-0.945893,-9.748639
17.502927,0.343580,-0.942302,-9.740259
17.536346,0.342233,-0.940955,-9.745946
17.569725,0.339241,-0.939009,-9.732179
17.602916,0.344478,-0.939758,-9.745198
17.636214,0.347022,-0.942751,-9.748190
17.669569,0.342682,-0.941703,-9.735471
17.702744,0.340438,-0.938112,-9.737267
17.736272,0.340138,-0.942601,-9.738314
17.769601,0.338343,-0.939608,-9.739960
17.802991,0.347621,-0.937513,-9.741756
17.836279,0.352708,-0.941254,-9.738913
17.869612,0.339540,-0.944247,-9.739062
17.902992,0.344927,-0.942002,-9.740259
17.936275,0.355103,-0.948138,-9.734274
17.969637,0.341485,-0.937513,-9.741457
18.002917,0.344478,-0.945743,-9.745347
18.036277,0.346423,-0.943499,-9.745946
18.069621,0.345226,-0.943050,-9.745198
18.102931,0.342383,-0.936615,-9.743851
18.136274,0.347172,-0.951729,-9.740259
18.169606,0.338941,-0.938710,-9.739362
18.202954,0.347321,-0.945444,-9.741157
18.236270,0.337744,-0.946192,-9.744300
18.269641,0.351062,-0.933173,-9.733226
18.302938,0.347621,-0.945893,-9.740559
18.336274,0.349716,-0.935268,-9.748639
18.369671,0.345974,-0.945444,-9.743701
18.402937,0.342383,-0.940356,-9.738164
18.436279,0.346872,-0.942302,-9.738464
18.469606,0.343580,-0.950682,-9.746544
18.502921,0.341336,-0.940356,-9.748041
18.536273,0.339989,-0.939009,-9.738763
18.569601,0.337894,-0.946342,-9.732328
18.602925,0.349416,-0.937214,-9.737865
18.636274,0.344777,-0.936466,-9.740110
18.669609,0.348369,-0.935867,-9.729036
18.702926,0.351062,-0.946192,-9.740559
18.736297,0.342982,-0.936316,-9.738763
18.769625,0.339241,-0.931677,-9.737416
18.802928,0.346872,-0.938112,-9.738613
18.836320,0.343730,-0.938261,-9.745048
18.869608,0.342982,-0.940207,-9.739511
18.902920,0.346423,-0.943648,-9.737715
18.936337,0.347770,-0.932276,-9.746245
18.969661,0.340288,-0.934520,-9.733675
19.003002,0.337594,-0.944995,-9.743402
19.036352,0.346423,-0.944995,-9.741008
19.069605,0.344328,-0.931677,-9.746544
19.103005,0.342233,-0.953974,-9.750585
19.136372,0.349865,-0.942751,-9.745497
19.169689,0.352708,-0.936017,-9.731281
19.203012,0.350314,-0.935268,-9.731580
19.236349,0.342533,-0.935717,-9.748041
19.269610,0.346423,-0.934969,-9.734723
19.303000,0.349865,-0.951879,-9.743701
19.336344,0.341934,-0.941553,-9.739810
19.369693,0.339540,-0.937663,-9.736668
19.403001,0.350314,-0.930031,-9.742654
19.436347,0.343879,-0.937962,-9.743252
19.469635,0.345077,-0.942601,-9.741756
19.502990,0.341186,-0.944546,-9.742354
19.536356,0.348069,-0.942002,-9.731879
19.569607,0.343730,-0.931827,-9.733974
19.603005,0.353008,-0.943499,-9.744000
19.636337,0.346872,-0.949036,-9.737117
19.669679,0.347920,-0.946043,-9.738314
19.703000,0.350015,-0.938860,-9.746095
19.736325,0.342084,-0.941104,-9.745497
19.769608,0.355552,-0.936316,-9.743103
19.802913,0.344927,-0.939009,-9.738015
19.836261,0.338343,-0.939758,-9.733077
19.869504,0.348967,-0.938710,-9.740110
19.902918,0.340138,-0.944247,-9.742654
19.936279,0.345077,-0.950981,-9.744150
19.969460,0.334153,-0.940805,-9.733077
20.002996,0.341036,-0.942601,-9.741905
20.035877,0.352559,-0.943050,-9.749837
20.069113,0.343131,-0.946791,-9.737267
20.102940,0.334153,-0.943648,-9.730084
20.136276,0.336547,-0.943199,-9.732478
20.169593,0.349416,-0.939758,-9.739062
20.202940,0.353606,-0.939009,-9.748789
20.236346,0.340288,-0.949784,-9.743701
20.269663,0.344179,-0.934520,-9.744898
20.302964,0.332507,-0.946342,-9.739960
20.335734,0.341336,-0.939758,-9.724248
20.369588,0.341934,-0.941104,-9.741457
20.402935,0.347321,-0.945743,-9.745048
20.436277,0.342533,-0.932874,-9.730383
20.469607,0.333255,-0.943050,-9.736219
20.502935,0.339091,-0.941853,-9.739511
20.536249,0.342982,-0.945294,-9.746095
20.569678,0.339091,-0.941853,-9.738314
20.602925,0.343431,-0.944846,-9.737865
20.636353,0.351661,-0.944995,-9.744449
20.669661,0.342084,-0.949185,-9.742953
20.702936,0.333853,-0.944846,-9.738314
20.736347,0.350613,-0.943648,-9.741905
20.769735,0.340438,-0.939159,-9.747293
20.802988,0.351811,-0.938860,-9.749088
20.836350,0.350164,-0.936466,-9.738913
20.869753,0.342383,-0.939907,-9.735471
20.902930,0.334153,-0.939159,-9.742953
20.936348,0.338642,-0.935717,-9.741457
20.969688,0.347920,-0.943648,-9.754326
21.002996,0.345825,-0.943199,-9.741307
21.036351,0.341336,-0.944696,-9.742654
21.069717,0.345077,-0.941104,-9.743701
21.102941,0.334602,-0.939608,-9.728438
21.136338,0.338792,-0.935568,-9.746095
21.169669,0.346723,-0.939907,-9.744000
21.202950,0.347471,-0.934670,-9.741307
21.236351,0.337894,-0.946641,-9.739810
21.269612,0.339989,-0.943798,-9.733226
21.302937,0.346423,-0.936017,-9.750136
21.336270,0.344179,-0.947838,-9.744449
21.369662,0.348219,-0.942152,-9.737865
21.402939,0.332806,-0.936166,-9.736668
21.436349,0.346723,-0.943648,-9.736668
21.469612,0.342682,-0.941853,-9.719459
21.502932,0.347022,-0.942302,-9.742205
21.536350,0.346573,-0.948138,-9.753428
21.569665,0.351212,-0.940805,-9.744000
21.602933,0.340887,-0.937214,-9.736518
21.636360,0.333554,-0.943050,-9.733825
21.669620,0.347920,-0.948437,-9.740559
21.702935,0.348069,-0.935268,-9.743252
21.736319,0.346872,-0.930629,-9.737416
21.769647,0.336547,-0.939907,-9.735770
21.802932,0.348668,-0.940955,-9.744150
21.836341,0.342982,-0.942302,-9.737865
21.869631,0.347321,-0.939907,-9.740259
21.902930,0.345974,-0.947689,-9.748939
21.936341,0.347471,-0.952028,-9.747442
21.969622,0.349117,-0.941553,-9.730233
22.002113,0.348219,-0.946492,-9.728737
22.036351,0.343281,-0.940057,-9.745647
22.069634,0.348967,-0.943349,-9.751632
22.102929,0.346124,-0.939309,-9.731131
22.136343,0.353157,-0.942302,-9.751333
22.169635,0.340288,-0.941254,-9.736069
22.202940,0.349416,-0.940805,-9.739511
22.236347,0.344628,-0.943349,-9.733675
22.269607,0.339839,-0.944995,-9.750585
22.302926,0.340587,-0.938710,-9.744300
22.336288,0.353008,-0.938710,-9.736668
22.369735,0.339689,-0.934969,-9.751932
22.402940,0.353157,-0.944247,-9.731281
22.436283,0.346872,-0.936615,-9.729784
22.469654,0.346274,-0.937962,-9.744300
22.502931,0.342982,-0.938112,-9.741756
22.536270,0.345675,-0.945444,-9.724098
22.569662,0.349716,-0.944397,-9.737267
22.602928,0.338642,-0.945594,-9.741457
22.636278,0.346573,-0.933473,-9.748190
22.669704,0.352259,-0.928983,-9.741307
22.702934,0.352110,-0.945145,-9.737865
22.736282,0.342832,-0.935119,-9.751034
22.769644,0.347172,-0.936765,-9.742205
22.802988,0.352409,-0.940506,-9.739362
22.836274,0.340887,-0.945893,-9.742055
22.869631,0.350164,-0.945444,-9.736967
22.902990,0.350464,-0.941404,-9.739661
22.936274,0.341934,-0.945893,-9.738464
22.969621,0.331309,-0.937962,-9.728587
23.002925,0.343879,-0.948587,-9.741457
23.036326,0.348818,-0.930629,-9.736668
23.069621,0.346124,-0.937064,-9.747891
23.102926,0.348668,-0.934221,-9.739362
23.136271,0.342533,-0.944247,-9.741157
23.169607,0.340138,-0.946192,-9.729934
23.202930,0.353606,-0.947389,-9.745497
23.236271,0.345974,-0.939009,-9.734124
23.269620,0.346423,-0.933772,-9.736219
23.302932,0.345077,-0.941553,-9.727240
23.336278,0.332058,-0.938860,-9.743252
23.369601,0.351212,-0.949484,-9.739661
23.403008,0.347321,-0.943499,-9.743552
23.436285,0.345675,-0.931827,-9.741756
23.469671,0.338343,-0.948437,-9.743701
23.502990,0.345526,-0.936017,-9.741756
23.536282,0.349416,-0.942900,-9.738015
23.569609,0.348967,-0.952028,-9.743701
23.602984,0.344179,-0.938710,-9.742205
23.636339,0.341485,-0.946043,-9.739810
23.669594,0.350314,-0.938261,-9.742953
23.702988,0.344029,-0.942302,-9.741905
23.736323,0.330412,-0.937962,-9.735920
23.769672,0.342832,-0.942451,-9.741905
23.802939,0.340438,-0.931078,-9.749537
23.836346,0.343431,-0.943648,-9.740708
23.869592,0.337594,-0.937513,-9.741157
23.902941,0.339989,-0.944397,-9.742953
23.936337,0.343879,-0.939458,-9.746245
23.969660,0.345974,-0.937513,-9.741157
24.002998,0.343431,-0.933622,-9.741905
24.036292,0.338492,-0.946492,-9.738763
24.069842,0.335200,-0.942451,-9.742354
24.102914,0.339241,-0.943050,-9.734573
24.136310,0.348369,-0.941254,-9.730383
24.169869,0.338043,-0.936765,-9.749687
24.202944,0.348967,-0.945294,-9.746095
24.236328,0.350763,-0.944546,-9.731281
24.269894,0.335200,-0.944696,-9.735770
24.302944,0.339091,-0.943648,-9.749238
24.336240,0.344628,-0.932575,-9.736818
24.369756,0.347770,-0.940805,-9.735471
24.402930,0.347321,-0.946192,-9.739062
24.436275,0.344478,-0.936466,-9.740559
24.469584,0.338492,-0.949335,-9.742504
24.502936,0.348069,-0.943499,-9.729335
24.536337,0.346872,-0.939907,-9.751782
24.569619,0.343730,-0.937363,-9.737715
24.603001,0.350613,-0.936765,-9.748639
24.636325,0.343580,-0.941703,-9.742953
24.669619,0.350164,-0.936017,-9.746993
24.702967,0.353307,-0.943349,-9.736818
24.736317,0.349267,-0.935568,-9.747442
24.769657,0.350613,-0.933024,-9.735770
24.803001,0.348967,-0.947689,-9.741008
24.836374,0.353307,-0.946192,-9.737865
24.869615,0.341635,-0.940955,-9.739062
24.902952,0.347321,-0.941553,-9.745796
24.936304,0.348967,-0.937663,-9.742354
24.969636,0.344179,-0.942302,-9.743103
25.003024,0.354654,-0.938261,-9.741008
25.036305,0.347172,-0.941104,-9.736219
25.069616,0.348818,-0.935568,-9.743701
25.102999,0.344179,-0.940656,-9.741905
25.136303,0.351661,-0.943349,-9.724547
25.169601,0.352708,-0.939458,-9.741905
25.203007,0.346723,-0.942152,-9.746694
25.236283,0.342383,-0.942601,-9.746095
25.269534,0.343281,-0.943499,-9.723499
25.302874,0.335649,-0.950233,-9.752530
25.335840,0.337594,-0.939159,-9.746844
25.369607,0.346423,-0.941553,-9.740858
25.402926,0.347321,-0.936166,-9.748639
25.436312,0.344029,-0.935119,-9.742504
25.469072,0.344029,-0.939458,-9.746245
25.502928,0.346423,-0.943050,-9.749687
25.535609,0.349566,-0.940057,-9.745347
25.569607,0.347172,-0.946941,-9.738913
25.602921,0.347920,-0.943199,-9.740858
25.635583,0.341784,-0.944097,-9.742654
25.669604,0.341784,-0.940207,-9.735620
25.702956,0.336397,-0.933173,-9.740409
25.736329,0.342233,-0.944995,-9.741905
25.769606,0.348069,-0.943499,-9.751632
25.802929,0.349267,-0.942152,-9.744300
25.835718,0.347770,-0.938561,-9.736069
25.869635,0.339540,-0.947689,-9.744150
25.902951,0.344628,-0.941404,-9.741457
25.936248,0.337744,-0.945594,-9.742953
25.969586,0.350164,-0.942601,-9.744000
26.003010,0.339540,-0.939758,-9.744300
26.036275,0.347920,-0.941553,-9.737117
26.069613,0.339989,-0.947689,-9.731580
26.102977,0.343281,-0.947389,-9.735022
26.136279,0.347621,-0.938561,-9.741457
26.169633,0.349865,-0.942601,-9.739960
26.202940,0.347471,-0.941853,-9.736967
26.236278,0.332956,-0.939159,-9.733675
26.269661,0.342233,-0.941404,-9.733825
26.303001,0.340288,-0.948287,-9.750585
26.335531,0.336846,-0.936316,-9.742654
26.369605,0.345974,-0.939309,-9.759114
26.402999,0.337744,-0.939159,-9.751782
26.435941,0.356898,-0.936017,-9.726492
26.469600,0.340288,-0.928235,-9.742953
26.502999,0.341485,-0.944097,-9.740259
26.536109,0.350464,-0.941254,-9.735172
26.569602,0.342084,-0.940805,-9.741905
26.603004,0.341635,-0.949634,-9.737715
26.636296,0.339540,-0.944097,-9.745048
26.669613,0.347471,-0.943349,-9.745497
26.702986,0.342832,-0.943798,-9.741606
26.736276,0.341186,-0.934969,-9.739960
26.769671,0.334452,-0.941404,-9.756421
26.802999,0.341784,-0.935867,-9.727989
26.836273,0.341784,-0.949933,-9.752380
26.869592,0.339540,-0.935268,-9.741157
26.902998,0.344927,-0.944247,-9.739810
26.935779,0.335200,-0.938411,-9.757768
26.969606,0.360340,-0.942002,-9.723350
27.002992,0.357198,-0.951280,-9.731580
27.036278,0.354504,-0.931827,-9.734423
27.069609,0.361687,-0.937214,-9.727240
27.102933,0.345675,-0.950831,-9.735321
27.136266,0.346274,-0.938261,-9.729186
27.169648,0.349716,-0.941553,-9.761658
27.202994,0.339241,-0.943648,-9.744300
27.236339,0.345675,-0.942152,-9.740409
27.269627,0.345226,-0.948437,-9.745497
27.302988,0.333404,-0.940955,-9.752231
27.336287,0.345974,-0.947389,-9.745198
27.369632,0.351062,-0.939009,-9.746245
27.402994,0.353307,-0.941254,-9.736518
27.435667,0.359891,-0.939159,-9.730832
27.469606,0.359293,-0.935717,-9.745198
27.502435,0.351811,-0.940207,-9.736967
27.536281,0.347920,-0.939309,-9.734872
27.569610,0.349865,-0.940955,-9.744000
27.603000,0.346872,-0.939159,-9.753578
27.636287,0.353157,-0.928534,-9.738913
27.669649,0.348818,-0.938112,-9.731430
27.702955,0.333554,-0.941553,-9.739511
27.736279,0.354354,-0.942601,-9.744150
27.769671,0.347022,-0.935268,-9.751034
27.802997,0.352409,-0.942152,-9.743103
27.836278,0.339390,-0.940506,-9.729485
27.869608,0.354654,-0.935568,-9.750585
27.903016,0.342084,-0.933922,-9.739212
27.936281,0.341036,-0.946492,-9.737117
27.969651,0.346723,-0.934670,-9.742055
28.002194,0.354654,-0.937962,-9.733974
28.036257,0.340887,-0.936466,-9.729485
28.069610,0.349416,-0.936166,-9.736518
28.102974,0.346872,-0.937513,-9.740259
28.136303,0.356300,-0.941404,-9.749088
28.169606,0.344029,-0.939009,-9.737117
28.202928,0.350464,-0.942451,-9.732628
28.236344,0.339839,-0.936316,-9.746694
28.269612,0.349865,-0.936914,-9.746395
28.302938,0.333853,-0.951131,-9.744898
28.336346,0.348668,-0.939458,-9.744150
28.369597,0.338642,-0.943349,-9.748340
28.402988,0.343879,-0.938561,-9.738464
28.436274,0.342084,-0.945294,-9.737715
28.469609,0.340887,-0.939608,-9.740858
28.501999,0.351212,-0.943648,-9.739362
28.536276,0.344927,-0.940656,-9.741457
28.569604,0.335948,-0.936017,-9.739960
28.603003,0.343281,-0.943648,-9.745198
28.636259,0.350015,-0.944397,-9.731730
28.669606,0.340138,-0.939758,-9.746993
28.702939,0.336098,-0.938112,-9.738613
28.736256,0.352708,-0.936316,-9.746544
28.769628,0.353906,-0.939309,-9.751483
28.803072,0.343431,-0.939009,-9.735471
28.836319,0.336697,-0.946791,-9.751483
28.869616,0.336098,-0.943648,-9.735620
28.902928,0.344927,-0.940207,-9.732328
28.936307,0.342533,-0.945294,-9.745048
28.969618,0.349566,-0.928534,-9.746095
29.002999,0.332656,-0.939159,-9.750435
29.036256,0.338343,-0.931078,-9.719010
29.069608,0.344478,-0.937064,-9.742055
29.103071,0.334751,-0.941703,-9.756271
29.136259,0.342533,-0.937064,-9.751183
29.169611,0.345675,-0.936166,-9.733825
29.202984,0.348967,-0.940656,-9.729335
29.236271,0.341635,-0.943648,-9.735620
29.269605,0.338043,-0.947539,-9.735471
29.302987,0.347920,-0.937363,-9.735471
29.336213,0.347321,-0.938860,-9.746844
29.369568,0.350613,-0.944247,-9.740708
29.402983,0.345825,-0.944546,-9.729036
29.436257,0.345675,-0.934520,-9.733974
29.469612,0.341784,-0.940506,-9.749537
29.502986,0.347321,-0.943050,-9.745647
29.536260,0.345226,-0.938710,-9.734723
29.569607,0.339689,-0.941254,-9.749837
29.602770,0.345974,-0.939608,-9.735920
29.636309,0.345077,-0.940506,-9.750884
29.669610,0.347770,-0.936615,-9.738015
29.702949,0.340887,-0.950682,-9.746395
29.735346,0.348967,-0.939009,-9.737865
29.769610,0.347471,-0.947389,-9.737416
29.802948,0.346723,-0.939758,-9.725594
29.836315,0.348219,-0.947689,-9.750285
29.869610,0.340887,-0.948886,-9.758366
29.902938,0.352409,-0.935418,-9.747293
29.936262,0.350164,-0.943050,-9.737865
29.969615,0.343281,-0.946043,-9.747891
30.003073,0.348518,-0.939009,-9.737566
30.036261,0.346723,-0.939458,-9.753727
30.069699,0.355851,-0.932724,-9.724098
30.102946,0.353457,-0.931677,-9.733675
30.136280,0.350613,-0.940207,-9.735172
30.169611,0.347321,-0.938411,-9.737416
30.203010,0.354504,-0.934371,-9.739212
30.236270,0.347321,-0.941404,-9.735770
30.269619,0.350464,-0.936316,-9.744749
30.302964,0.352110,-0.938860,-9.736668
30.336274,0.348967,-0.947539,-9.727091
30.369611,0.348219,-0.937064,-9.742205
30.403011,0.340587,-0.941254,-9.729485
30.436377,0.351362,-0.943948,-9.738314
30.469616,0.346723,-0.937663,-9.746245
30.502938,0.351212,-0.935717,-9.749537
30.536255,0.346423,-0.934969,-9.726343
30.569613,0.334003,-0.937363,-9.764950
30.602941,0.348219,-0.935418,-9.741905
30.636337,0.347471,-0.939009,-9.736967
30.669636,0.348219,-0.938411,-9.738464
30.703004,0.346872,-0.941254,-9.735770
30.736270,0.342982,-0.937363,-9.744000
30.769624,0.341036,-0.939159,-9.739661
30.802926,0.352409,-0.946043,-9.736818
30.835384,0.348518,-0.937363,-9.744300
30.869606,0.352559,-0.943948,-9.744000
30.902927,0.345825,-0.939458,-9.732478
30.935905,0.350164,-0.941404,-9.734274
30.969249,0.345077,-0.930929,-9.739810
31.002404,0.336996,-0.938411,-9.733077
31.036257,0.347471,-0.944247,-9.737566
31.069611,0.343580,-0.947389,-9.750884
31.103010,0.352259,-0.938112,-9.746544
31.136328,0.344478,-0.940356,-9.744000
31.169611,0.342682,-0.934221,-9.739960
31.202926,0.345376,-0.942302,-9.739810
31.236287,0.342383,-0.941404,-9.745796
31.269613,0.345226,-0.941254,-9.736369
31.303006,0.342383,-0.933473,-9.731730
31.336267,0.354654,-0.941254,-9.730682
31.369603,0.349416,-0.945893,-9.751782
31.402940,0.351511,-0.938710,-9.741457
31.436259,0.339839,-0.950233,-9.741457
31.469612,0.336996,-0.944247,-9.728438
31.503012,0.343879,-0.944696,-9.741905
31.536257,0.343131,-0.939309,-9.742354
31.569612,0.344179,-0.939458,-9.747891
31.602937,0.342982,-0.933173,-9.732927
31.636331,0.346723,-0.940207,-9.735770
31.669611,0.345825,-0.951280,-9.743252
31.702941,0.355552,-0.949335,-9.743103
31.736325,0.338492,-0.939009,-9.736668
31.769612,0.343281,-0.942451,-9.745347
31.802997,0.340138,-0.942751,-9.748340
31.836266,0.350613,-0.942601,-9.742504
31.869610,0.341186,-0.939758,-9.728587
31.902922,0.338193,-0.941404,-9.739810
31.936269,0.336397,-0.932126,-9.740259
31.969626,0.345077,-0.942002,-9.736668
32.002960,0.346423,-0.939608,-9.744449
32.036350,0.346274,-0.938411,-9.737566
32.069596,0.334302,-0.942152,-9.746544
32.102934,0.345825,-0.950083,-9.743552
32.136301,0.346274,-0.944546,-9.745796
32.169627,0.344328,-0.937064,-9.737566
32.202929,0.347172,-0.939608,-9.744449
32.236273,0.342982,-0.935717,-9.747293
32.269647,0.350314,-0.939159,-9.738913
32.302935,0.353906,-0.937812,-9.739661
32.336278,0.349716,-0.933922,-9.742803
32.369610,0.346872,-0.937064,-9.730084
32.402933,0.348219,-0.942302,-9.737865
32.436276,0.346872,-0.939458,-9.739062
32.469609,0.341934,-0.937363,-9.746095
32.502930,0.341336,-0.936615,-9.731730
32.536224,0.331609,-0.946941,-9.736967
32.569577,0.345376,-0.944247,-9.749837
32.602941,0.344328,-0.935717,-9.752530
32.636341,0.349566,-0.939009,-9.735620
32.669605,0.343281,-0.943199,-9.747442
32.702946,0.338343,-0.937962,-9.746694
32.736258,0.348668,-0.933473,-9.744599
32.769606,0.340737,-0.938112,-9.746993
32.802936,0.351062,-0.936316,-9.737117
32.835631,0.348518,-0.936466,-9.754176
32.869678,0.350015,-0.933772,-9.744150
32.902963,0.357497,-0.932276,-9.746245
32.935470,0.351661,-0.931827,-9.741756
32.968721,0.351362,-0.934670,-9.744449
33.002943,0.342383,-0.937812,-9.744898
33.036279,0.352110,-0.938261,-9.741008
33.069608,0.350613,-0.936017,-9.726642
33.102946,0.351212,-0.931827,-9.726492
33.136266,0.349267,-0.939608,-9.746245
33.169636,0.345974,-0.937363,-9.739362
33.202944,0.357497,-0.937214,-9.741606
33.236305,0.357796,-0.940356,-9.738464
33.269607,0.358844,-0.941853,-9.756720
33.302952,0.349716,-0.934819,-9.736069
33.336258,0.339689,-0.942002,-9.737566
33.369609,0.343730,-0.935119,-9.747143
33.402946,0.347471,-0.945743,-9.736219
33.436267,0.351661,-0.947539,-9.742803
33.469601,0.343281,-0.930330,-9.735022
33.502948,0.347471,-0.936166,-9.742354
33.536345,0.344179,-0.937812,-9.722153
33.569642,0.347321,-0.945444,-9.754027
33.603026,0.339839,-0.937962,-9.742953
33.636270,0.343580,-0.940955,-9.741307
33.669649,0.338941,-0.930629,-9.742205
33.703018,0.342233,-0.943349,-9.746993
33.736269,0.347770,-0.952777,-9.732777
33.769647,0.350164,-0.930929,-9.746395
33.802964,0.350464,-0.936466,-9.740858
33.836261,0.346423,-0.945294,-9.736219
33.869603,0.341336,-0.935119,-9.732179
33.903010,0.341036,-0.946492,-9.736818
33.936265,0.352110,-0.931976,-9.722602
33.969610,0.349267,-0.937812,-9.748639
34.003068,0.347022,-0.942152,-9.746395
34.036258,0.350763,-0.938710,-9.741606
34.069602,0.340438,-0.939907,-9.735920
34.103027,0.343131,-0.932575,-9.750435
34.136268,0.353756,-0.939309,-9.749238
34.169655,0.352559,-0.938860,-9.745048
34.203010,0.346723,-0.935717,-9.739960
34.236258,0.338343,-0.939159,-9.745946
34.269690,0.342982,-0.943648,-9.734274
34.303015,0.343879,-0.950083,-9.730832
34.336268,0.342682,-0.940805,-9.734124
34.369628,0.344628,-0.934520,-9.743103
34.402957,0.348668,-0.946941,-9.747592
34.436334,0.348219,-0.952777,-9.729036
34.469612,0.348818,-0.940805,-9.737715
34.503010,0.343730,-0.937064,-9.743252
34.536303,0.341036,-0.941404,-9.744300
34.569608,0.339241,-0.948437,-9.741008
34.603004,0.347172,-0.941404,-9.725894
34.636347,0.343431,-0.944247,-9.736668
34.669608,0.345226,-0.931976,-9.748639
34.703013,0.343879,-0.943648,-9.749388
34.736372,0.332507,-0.950831,-9.737117
34.769613,0.343431,-0.941553,-9.733675
34.802999,0.342982,-0.936166,-9.738464
34.836282,0.343281,-0.941703,-9.745347
34.869604,0.342233,-0.944397,-9.743402
34.903016,0.340288,-0.940955,-9.750136
34.936345,0.338492,-0.946342,-9.748490
34.969610,0.336397,-0.941703,-9.739661
35.003080,0.342383,-0.948437,-9.735022
35.036284,0.347621,-0.950083,-9.723499
35.069621,0.339091,-0.944546,-9.742953
35.102976,0.336846,-0.926888,-9.744749
35.136268,0.352858,-0.933323,-9.741606
35.169608,0.351960,-0.938860,-9.737416
35.203017,0.341186,-0.941853,-9.740559
35.236285,0.347022,-0.950233,-9.751034
35.269668,0.351661,-0.939907,-9.745796
35.302907,0.349267,-0.941254,-9.746095
35.336302,0.342982,-0.939309,-9.736818
35.369599,0.342982,-0.947090,-9.739960
35.402963,0.345974,-0.942152,-9.741008
35.436187,0.342982,-0.941404,-9.747592
35.469603,0.353307,-0.944995,-9.742803
35.502951,0.343730,-0.941703,-9.755673
35.536363,0.354055,-0.943199,-9.745946
35.569668,0.346274,-0.937363,-9.744000
35.602947,0.352559,-0.937214,-9.742205
35.636282,0.341784,-0.940207,-9.739212
35.669602,0.348069,-0.938261,-9.745048
35.702965,0.350164,-0.945444,-9.750435
35.736274,0.342233,-0.940955,-9.727989
35.769609,0.355103,-0.946492,-9.740409
35.802971,0.340587,-0.946791,-9.733675
35.836342,0.346573,-0.950233,-9.746844
35.869608,0.347172,-0.939309,-9.747891
35.902982,0.356300,-0.935717,-9.736369
35.936270,0.349716,-0.941553,-9.735770
35.969604,0.341036,-0.942900,-9.737715
36.002706,0.345526,-0.941104,-9.739362
36.036319,0.353157,-0.939159,-9.738314
36.069677,0.344927,-0.932276,-9.744449
36.103035,0.353606,-0.939458,-9.741008
36.136364,0.339689,-0.942751,-9.734423
36.169640,0.344328,-0.945145,-9.735321
36.202989,0.346872,-0.944995,-9.740559
36.236318,0.347920,-0.934221,-9.747293
36.269610,0.344628,-0.943798,-9.738015
36.302328,0.346124,-0.941703,-9.738164
36.336057,0.347471,-0.947090,-9.754176
36.369601,0.345226,-0.940805,-9.750136
36.403003,0.339689,-0.940207,-9.749238
36.436372,0.344777,-0.947689,-9.749238
36.469637,0.351960,-0.940356,-9.744898
36.503012,0.345974,-0.939758,-9.751333
36.536382,0.342533,-0.953674,-9.739810
36.569606,0.343131,-0.948587,-9.745647
36.602946,0.345526,-0.941404,-9.742803
36.636286,0.351511,-0.939009,-9.749986
36.669610,0.346872,-0.940207,-9.735172
36.702945,0.336697,-0.944696,-9.736369
36.736350,0.340587,-0.944696,-9.743103
36.769609,0.338642,-0.943798,-9.749238
36.802940,0.341635,-0.938261,-9.723200
36.835881,0.338343,-0.943199,-9.740409
36.869608,0.346723,-0.939907,-9.752081
36.903079,0.351661,-0.952926,-9.735022
36.935758,0.348967,-0.937663,-9.733825
36.968669,0.352559,-0.948587,-9.749986
37.003092,0.346872,-0.942751,-9.747592
37.036721,0.341186,-0.946192,-9.738314
37.069627,0.346573,-0.944247,-9.733825
37.103023,0.337295,-0.945594,-9.742504
37.136658,0.341485,-0.943199,-9.743851
37.169614,0.347022,-0.941404,-9.738314
37.202943,0.341036,-0.948736,-9.744749
37.236502,0.344777,-0.935418,-9.742205
37.269656,0.345376,-0.947090,-9.739661
37.303009,0.338492,-0.953375,-9.723499
37.335698,0.347920,-0.956069,-9.738613
37.369617,0.341186,-0.943798,-9.745497
37.402938,0.353606,-0.938112,-9.776024
37.436275,0.351511,-0.937663,-9.734573
37.469605,0.340138,-0.950831,-9.719609
37.502954,0.335799,-0.942451,-9.731580
37.536589,0.340887,-0.946192,-9.751632
37.569609,0.339540,-0.955770,-9.739062
37.602964,0.342533,-0.934969,-9.732777
37.636451,0.340737,-0.948138,-9.753428
37.669606,0.347022,-0.942152,-9.749238
37.702973,0.346573,-0.947689,-9.743552
37.736448,0.350613,-0.948886,-9.740708
37.769649,0.343281,-0.951280,-9.748490
37.802985,0.346274,-0.946192,-9.736219
37.836443,0.348219,-0.952777,-9.736818
37.869642,0.343281,-0.944696,-9.735022
37.903014,0.341635,-0.949036,-9.747592
37.936441,0.346423,-0.940506,-9.737117
37.969635,0.351362,-0.948886,-9.747442
38.002969,0.346872,-0.944846,-9.729186
38.036365,0.345974,-0.946641,-9.721554
38.069703,0.338343,-0.945893,-9.741157
38.103029,0.340587,-0.943499,-9.752380
38.136727,0.348967,-0.950233,-9.735471
38.169613,0.349267,-0.940506,-9.752979
38.202974,0.349267,-0.944247,-9.743701
38.236374,0.340438,-0.939309,-9.736219
38.269614,0.345974,-0.943648,-9.745048
38.302945,0.350613,-0.942751,-9.744898
38.336291,0.346423,-0.944097,-9.746095
38.369610,0.338043,-0.948138,-9.740259
38.402981,0.349117,-0.940805,-9.733226
38.436699,0.356150,-0.949784,-9.742654
38.469647,0.349416,-0.946941,-9.740409
38.502972,0.353307,-0.944397,-9.745048
38.536523,0.339989,-0.940955,-9.736668
38.569603,0.349716,-0.939758,-9.736967
38.603020,0.350464,-0.947539,-9.736069
38.636479,0.351661,-0.943798,-9.731879
38.669606,0.343431,-0.939159,-9.741307
38.703008,0.355552,-0.937363,-9.737267
38.736385,0.347022,-0.943050,-9.749088
38.769600,0.348069,-0.949634,-9.735920
38.802939,0.342682,-0.941703,-9.729036
38.836391,0.347321,-0.934819,-9.754176
38.869621,0.346573,-0.940805,-9.756870
38.903018,0.347321,-0.941404,-9.728737
38.936254,0.346274,-0.945145,-9.738613
38.969611,0.346573,-0.943798,-9.744000
39.003065,0.347321,-0.940207,-9.726343
39.036321,0.347770,-0.944546,-9.739062
39.069696,0.352708,-0.948736,-9.737715
39.103038,0.351811,-0.943948,-9.736967
39.136271,0.342084,-0.934371,-9.734124
39.169613,0.345526,-0.940955,-9.741008
39.203008,0.346423,-0.948287,-9.741756
39.236502,0.350613,-0.939608,-9.738314
39.269598,0.343580,-0.942751,-9.746844
39.302962,0.347321,-0.940656,-9.716167
39.336538,0.332507,-0.950532,-9.752380
39.369215,0.350015,-0.935418,-9.713024
39.402940,0.339241,-0.944097,-9.744599
39.436590,0.357497,-0.934520,-9.725445
39.469605,0.336996,-0.949933,-9.739511
39.502958,0.341635,-0.945444,-9.749687
39.536575,0.336547,-0.946941,-9.757618
39.569605,0.343431,-0.950382,-9.752231
39.602976,0.345974,-0.933173,-9.752231
39.636543,0.355252,-0.943798,-9.738763
39.669609,0.349865,-0.937812,-9.704644
39.702944,0.336846,-0.941703,-9.752380
39.736359,0.354654,-0.944995,-9.750734
39.769604,0.337894,-0.948287,-9.760760
39.802980,0.402540,-0.911625,-9.830943
39.836437,0.361837,-0.978665,-9.776922
39.869605,0.338792,-0.959660,-9.741307
39.902938,0.369020,-0.958762,-9.868354
39.936417,0.334003,-0.930629,-9.741157
39.969621,0.342533,-0.935119,-9.700604
40.003024,0.333255,-0.936914,-9.745497
40.036263,0.344328,-0.928983,-9.727240
40.069425,0.345376,-0.938860,-9.745198
40.103113,0.344179,-0.930330,-9.749537
40.136303,0.359592,-0.943349,-9.757768
40.169606,0.337295,-0.928534,-9.733974
40.203055,0.345526,-0.939758,-9.743402
40.236284,0.345077,-0.942152,-9.729335
40.269623,0.350164,-0.942900,-9.748041
40.303073,0.348069,-0.937214,-9.751333
40.336263,0.352559,-0.941853,-9.743103
40.369596,0.342383,-0.930031,-9.728887
40.403041,0.349865,-0.935867,-9.740110
40.436326,0.346274,-0.933173,-9.732179
40.469603,0.354205,-0.941404,-9.748490
40.503005,0.339839,-0.928983,-9.741756
40.536304,0.357647,-0.935568,-9.749986
40.569311,0.348219,-0.937214,-9.745347
40.603012,0.353157,-0.937812,-9.736818
40.636349,0.349117,-0.936316,-9.753578
40.669602,0.337744,-0.938710,-9.735172
40.702935,0.348369,-0.944846,-9.746395
40.736356,0.346423,-0.937064,-9.730832
40.769632,0.345526,-0.935119,-9.746694
40.802950,0.351362,-0.935867,-9.724547
40.836290,0.352708,-0.948287,-9.740858
40.869647,0.342832,-0.938112,-9.738464
40.903010,0.344927,-0.949185,-9.757917
40.936278,0.353756,-0.934071,-9.722452
40.969609,0.353606,-0.938561,-9.737566
41.003015,0.344927,-0.936316,-9.737566
41.036279,0.354803,-0.938411,-9.752231
41.069709,0.343131,-0.944097,-9.745946
41.102946,0.346872,-0.933024,-9.732927
41.136338,0.352409,-0.941853,-9.741307
41.169718,0.358096,-0.940506,-9.735172
41.202945,0.349267,-0.931677,-9.740559
41.236340,0.354953,-0.944696,-9.743252
41.269688,0.347022,-0.945294,-9.741008
41.302979,0.355552,-0.931378,-9.741606
41.336271,0.347621,-0.928534,-9.735770
41.369674,0.351062,-0.937214,-9.728737
41.402940,0.349566,-0.933473,-9.754924
41.436267,0.353457,-0.943948,-9.750136
41.469611,0.340288,-0.939458,-9.760012
41.502950,0.347172,-0.945594,-9.734872
41.536057,0.350015,-0.932874,-9.739362
41.569609,0.350464,-0.931378,-9.724397
41.602946,0.337594,-0.936316,-9.755373
41.636253,0.353457,-0.941703,-9.741756
41.669647,0.351212,-0.939458,-9.735920
41.702957,0.342832,-0.922998,-9.732478
41.736260,0.348967,-0.949036,-9.770637
41.769682,0.360340,-0.938860,-9.743252
41.803013,0.345825,-0.945145,-9.745946
41.836338,0.346274,-0.933173,-9.729335
41.869603,0.347770,-0.933922,-9.747592
41.903021,0.346573,-0.937663,-9.745946
41.936260,0.348219,-0.937214,-9.734423
41.969637,0.346573,-0.946941,-9.733376
42.003081,0.335200,-0.940207,-9.738613
42.036267,0.356449,-0.935717,-9.736369
42.069611,0.347621,-0.938411,-9.738613
42.103090,0.333404,-0.921950,-9.737566
42.136273,0.344328,-0.936615,-9.736369
42.169610,0.340288,-0.943798,-9.748041
42.203024,0.339689,-0.938561,-9.746544
42.236259,0.342832,-0.936017,-9.741157
42.269608,0.355701,-0.938561,-9.752829
42.303084,0.354055,-0.935867,-9.730084
42.336264,0.341934,-0.944696,-9.756421
42.369605,0.342383,-0.936017,-9.733974
42.402967,0.350613,-0.941553,-9.727689
42.436263,0.346573,-0.936615,-9.746694
42.469607,0.346723,-0.940656,-9.762706
42.503090,0.343730,-0.940955,-9.745347
42.536354,0.338941,-0.937962,-9.742803
42.569716,0.342233,-0.942002,-9.742055
42.603014,0.342682,-0.933772,-9.748789
42.636261,0.348069,-0.934969,-9.756720
42.669662,0.351811,-0.935867,-9.724697
42.703021,0.348219,-0.940506,-9.732029
42.736299,0.346872,-0.938411,-9.743552
42.769609,0.349416,-0.935867,-9.741457
42.802973,0.346573,-0.944397,-9.740858
42.836303,0.353157,-0.934969,-9.741905
42.869613,0.342982,-0.930779,-9.731430
42.903015,0.340288,-0.937214,-9.754775
42.936308,0.345675,-0.940356,-9.744599
42.969607,0.350763,-0.939608,-9.745198
43.002942,0.339091,-0.943499,-9.743402
43.036311,0.347172,-0.936166,-9.733974
43.069611,0.346872,-0.938860,-9.740858
43.103011,0.338492,-0.936914,-9.737117
43.136273,0.350913,-0.932425,-9.736369
43.169634,0.346274,-0.941853,-9.740259
43.203016,0.350314,-0.932126,-9.747891
43.236286,0.344628,-0.933772,-9.737416
43.269653,0.349416,-0.936017,-9.732628
43.303037,0.342682,-0.935867,-9.742654
43.336305,0.342084,-0.931527,-9.744599
43.369683,0.352708,-0.936765,-9.750585
43.403013,0.347172,-0.934819,-9.725894
43.436319,0.342832,-0.942900,-9.733077
43.469610,0.348818,-0.937962,-9.741157
43.503020,0.350464,-0.937214,-9.732179
43.536286,0.355552,-0.939907,-9.733077
43.569634,0.347321,-0.942451,-9.742055
43.602939,0.345226,-0.936017,-9.738015
43.636076,0.346124,-0.936316,-9.754326
43.669640,0.346274,-0.944097,-9.741457
43.702860,0.349117,-0.933024,-9.740858
43.736104,0.335799,-0.933622,-9.742205
43.769608,0.350164,-0.934670,-9.740858
43.803037,0.351811,-0.934670,-9.742803
43.836328,0.352409,-0.928983,-9.735920
43.869647,0.346423,-0.938710,-9.733974
43.902950,0.345526,-0.931527,-9.744898
43.936256,0.344029,-0.930480,-9.737416
43.968791,0.351511,-0.939009,-9.746544
44.003017,0.347920,-0.936017,-9.739960
44.036260,0.346573,-0.941254,-9.736967
44.069605,0.348818,-0.937064,-9.746245
44.102930,0.349416,-0.935568,-9.748789
44.136294,0.348369,-0.934371,-9.739511
44.169606,0.347471,-0.932575,-9.739810
44.203025,0.347621,-0.932425,-9.737566
44.236341,0.344478,-0.934969,-9.742654
44.269686,0.352409,-0.936166,-9.741756
44.302990,0.348219,-0.931378,-9.751034
44.336256,0.349117,-0.941254,-9.744449
44.369608,0.347172,-0.940955,-9.739661
44.402988,0.340587,-0.943050,-9.740559
44.436271,0.343580,-0.933473,-9.741157
44.469619,0.351212,-0.938411,-9.734872
44.503006,0.350464,-0.934371,-9.749687
44.536285,0.347321,-0.931677,-9.743402
44.569618,0.348967,-0.933772,-9.723649
44.603008,0.340288,-0.934071,-9.740559
44.636337,0.344179,-0.937812,-9.745347
44.669602,0.350613,-0.925242,-9.739511
44.702992,0.353457,-0.933323,-9.732029
44.736364,0.346274,-0.928834,-9.739362
44.769677,0.352708,-0.937363,-9.751632
44.803014,0.343431,-0.933772,-9.748340
44.836317,0.346872,-0.932575,-9.743851
44.869650,0.342982,-0.933323,-9.751183
44.903022,0.355552,-0.938261,-9.733077
44.936255,0.344179,-0.931228,-9.737865
44.969604,0.346573,-0.930929,-9.736069
45.003082,0.350763,-0.937064,-9.737566
45.036282,0.347770,-0.936316,-9.745946
45.069607,0.348369,-0.932425,-9.730533
45.102935,0.343431,-0.930480,-9.740708
45.136311,0.343281,-0.933772,-9.750435
45.169610,0.342533,-0.941553,-9.756122
45.202931,0.346423,-0.941104,-9.729784
45.236318,0.348967,-0.936914,-9.738314
45.269611,0.349267,-0.930181,-9.750884
45.302942,0.341186,-0.949933,-9.741756
45.336324,0.341635,-0.942900,-9.737715
45.369714,0.350015,-0.949634,-9.723200
45.402941,0.345825,-0.941553,-9.746694
45.436317,0.339839,-0.942302,-9.760760
45.469684,0.339989,-0.938261,-9.729635
45.502982,0.335051,-0.949634,-9.748340
45.536288,0.347022,-0.935418,-9.739062
45.569704,0.343580,-0.941853,-9.756570
45.603049,0.345376,-0.934221,-9.738913
45.636383,0.348668,-0.944097,-9.737715
45.669609,0.348518,-0.933473,-9.741307
45.702983,0.343879,-0.940805,-9.732179
45.736274,0.341336,-0.940955,-9.742953
45.769596,0.353906,-0.937513,-9.738314
45.802945,0.331160,-0.934819,-9.756122
45.836382,0.338642,-0.939159,-9.739511
45.869726,0.350314,-0.939009,-9.731580
45.902909,0.350164,-0.941703,-9.748340
45.936219,0.351960,-0.938261,-9.742803
45.969586,0.347022,-0.942002,-9.748190
46.002983,0.347172,-0.944546,-9.743851
46.036277,0.355402,-0.932575,-9.737416
46.069608,0.334003,-0.948587,-9.757169
46.102899,0.350763,-0.941404,-9.752680
46.136277,0.358395,-0.937812,-9.738613
46.169704,0.353307,-0.931677,-9.757169
46.203009,0.347172,-0.934371,-9.736369
46.236303,0.336697,-0.947090,-9.738464
46.269642,0.354354,-0.936765,-9.733376
46.302942,0.354354,-0.939758,-9.739661
46.335582,0.358395,-0.937363,-9.727091
46.369554,0.357347,-0.943648,-9.753278
46.402935,0.342084,-0.933622,-9.728138
46.436251,0.357796,-0.942751,-9.744599
46.469637,0.354953,-0.935119,-9.745048
46.502962,0.356001,-0.931527,-9.742354
46.536275,0.364081,-0.931827,-9.736668
46.569699,0.354205,-0.934371,-9.732478
46.603092,0.358096,-0.933323,-9.721704
46.636351,0.346274,-0.939159,-9.741008
46.669645,0.350913,-0.927337,-9.743701
46.703098,0.349267,-0.942751,-9.749388
46.736301,0.351362,-0.943349,-9.743701
46.769599,0.376951,-0.928534,-9.745198
46.802929,0.337894,-0.942152,-9.756870
46.836251,0.345675,-0.939758,-9.746844
46.869635,0.352858,-0.938710,-9.729485
46.902951,0.348518,-0.937812,-9.747891
46.936229,0.353457,-0.942002,-9.742354
46.969611,0.341485,-0.940805,-9.754475
47.002992,0.351362,-0.939159,-9.726941
47.036318,0.349267,-0.937214,-9.739212
47.069651,0.346573,-0.941853,-9.740559
47.102903,0.344927,-0.946941,-9.734124
47.136264,0.357347,-0.942002,-9.724248
47.169641,0.344927,-0.938860,-9.753129
47.203004,0.348069,-0.931827,-9.726492
47.236333,0.350314,-0.934670,-9.736818
47.269673,0.345825,-0.936914,-9.739362
47.303052,0.347321,-0.943349,-9.742654
47.336328,0.341784,-0.936017,-9.746245
47.369608,0.358545,-0.940506,-9.733077
47.402915,0.340288,-0.944696,-9.749388
47.436256,0.353906,-0.931976,-9.736369
47.469548,0.344777,-0.943349,-9.734723
47.502924,0.349416,-0.943948,-9.730084
47.536267,0.343580,-0.947240,-9.739511
47.569574,0.349416,-0.942302,-9.743851
47.602883,0.344777,-0.931976,-9.742205
47.636200,0.357796,-0.938561,-9.742654
47.669577,0.350763,-0.946492,-9.727989
47.702897,0.351811,-0.942900,-9.726792
47.736617,0.354504,-0.937962,-9.740409
47.769650,0.350913,-0.946941,-9.735770
47.802956,0.349117,-0.937812,-9.729335
47.836211,0.356898,-0.948287,-9.723799
47.869562,0.351062,-0.934221,-9.746095
47.902965,0.344328,-0.936017,-9.741606
47.936196,0.349267,-0.939009,-9.730832
47.969586,0.347621,-0.938112,-9.739810
48.002895,0.348818,-0.951430,-9.740110
48.036310,0.354504,-0.944097,-9.734124
48.069564,0.352858,-0.940207,-9.736369
48.102931,0.350913,-0.945893,-9.740708
48.136227,0.341934,-0.939458,-9.731281
48.169640,0.349865,-0.946192,-9.748789
48.202115,0.354504,-0.933473,-9.740559
48.236201,0.337894,-0.939608,-9.736219
48.269149,0.343580,-0.949335,-9.733376
48.303001,0.344927,-0.939309,-9.736069
48.335876,0.354803,-0.944097,-9.740259
48.369579,0.361837,-0.947689,-9.732179
48.402892,0.344478,-0.939758,-9.722751
48.436244,0.347471,-0.940805,-9.726193
48.469568,0.349117,-0.937363,-9.733525
48.502961,0.348219,-0.934969,-9.732628
48.536231,0.347321,-0.940805,-9.744599
48.569180,0.356749,-0.940656,-9.728887
48.603012,0.355701,-0.939009,-9.732628
48.636333,0.353756,-0.935867,-9.723350
48.669686,0.354504,-0.934520,-9.737416
48.703006,0.351362,-0.943798,-9.733226
48.736298,0.356300,-0.935717,-9.736069
48.769675,0.351811,-0.936316,-9.722153
48.802977,0.347621,-0.940057,-9.736967
48.836264,0.347321,-0.930779,-9.737865
48.869559,0.348518,-0.940207,-9.734573
48.902933,0.348369,-0.936017,-9.738464
48.936288,0.355552,-0.932575,-9.734423
48.969750,0.347172,-0.938112,-9.747742
49.003006,0.365129,-0.930181,-9.723799
49.036295,0.346872,-0.937064,-9.739511
49.069663,0.352858,-0.937363,-9.746844
49.102941,0.356001,-0.946791,-9.742055
49.136290,0.355103,-0.940955,-9.722602
49.169603,0.347920,-0.933173,-9.729335
49.202980,0.339839,-0.942302,-9.735770
49.236294,0.352409,-0.940057,-9.734423
49.269722,0.346274,-0.929881,-9.727091
49.303031,0.351511,-0.939458,-9.735471
49.336270,0.344179,-0.942751,-9.729934
49.369639,0.357796,-0.937962,-9.732628
49.403018,0.357198,-0.939159,-9.726043
49.436300,0.350314,-0.933473,-9.737267
49.469613,0.348069,-0.943798,-9.739511
49.503000,0.354354,-0.943349,-9.734274
49.536341,0.350314,-0.948736,-9.734423
49.569668,0.350314,-0.935867,-9.742354
49.603089,0.353157,-0.931527,-9.732029
49.635735,0.344179,-0.941104,-9.745647
49.669604,0.349416,-0.940506,-9.736967
49.702168,0.352559,-0.939758,-9.728887
49.736259,0.348369,-0.938112,-9.713473
49.769603,0.343580,-0.938411,-9.734723
49.803041,0.355701,-0.937214,-9.741905
49.836346,0.347621,-0.937363,-9.730982
49.869644,0.348219,-0.935568,-9.730832
49.902942,0.340288,-0.938860,-9.728587
49.936279,0.350314,-0.933323,-9.714072
49.969642,0.355402,-0.935717,-9.744300
50.003021,0.349267,-0.936914,-9.742504
50.036306,0.343431,-0.939009,-9.724846
50.069617,0.353906,-0.940805,-9.736069
50.103018,0.347621,-0.941553,-9.721853
50.136235,0.345376,-0.935717,-9.730383
50.169611,0.344628,-0.936615,-9.740559
50.202945,0.344179,-0.935867,-9.745048
50.236291,0.343131,-0.934670,-9.731580
50.269597,0.345376,-0.938561,-9.738913
50.302954,0.346872,-0.932276,-9.742504
50.336299,0.352409,-0.941553,-9.740259
50.369600,0.347022,-0.939458,-9.740110
50.402948,0.353008,-0.944995,-9.730084
50.436347,0.344927,-0.940805,-9.730832
50.469606,0.344328,-0.940356,-9.735172
50.502972,0.346423,-0.941104,-9.725445
50.536303,0.334602,-0.939758,-9.740409
50.569607,0.352708,-0.934819,-9.744150
50.602971,0.353906,-0.936914,-9.739810
50.636339,0.341186,-0.933622,-9.728587
50.669604,0.348369,-0.945145,-9.735920
50.702969,0.347471,-0.937812,-9.740708
50.736319,0.348069,-0.935568,-9.744000
50.769597,0.353906,-0.941254,-9.738314
50.802966,0.348668,-0.933922,-9.719609
50.836288,0.344328,-0.939009,-9.744898
50.869617,0.351960,-0.937812,-9.730982
50.902958,0.347022,-0.938561,-9.737416
50.936283,0.344777,-0.938261,-9.741307
50.969623,0.360789,-0.938411,-9.731580
51.003005,0.350464,-0.951879,-9.728737
51.036282,0.338343,-0.945444,-9.746544
51.069657,0.352259,-0.937962,-9.734274
51.102949,0.346423,-0.938561,-9.735471
51.136287,0.349267,-0.929283,-9.726642
51.169612,0.349865,-0.931976,-9.735920
51.202954,0.354803,-0.937513,-9.724397
51.236231,0.344628,-0.943648,-9.732777
51.269539,0.355851,-0.934221,-9.742803
51.302986,0.352858,-0.936466,-9.741157
51.336366,0.349865,-0.939458,-9.732777
51.369603,0.347022,-0.937812,-9.732328
51.402967,0.349267,-0.942751,-9.744749
51.436260,0.352708,-0.940356,-9.738015
51.469631,0.358694,-0.931677,-9.729784
51.503047,0.340737,-0.937513,-9.732628
51.536968,0.341635,-0.943798,-9.738464
51.569669,0.354504,-0.933922,-9.738164
51.602971,0.343730,-0.941104,-9.731430
51.636287,0.346872,-0.935568,-9.733525
51.669601,0.353457,-0.941553,-9.735172
51.702936,0.347920,-0.942751,-9.736818
51.736322,0.352708,-0.946342,-9.726492
51.769601,0.346872,-0.939608,-9.727390
51.803018,0.344628,-0.938261,-9.733226
51.836359,0.353008,-0.939458,-9.737865
51.869607,0.352409,-0.945594,-9.736818
51.902935,0.348219,-0.945444,-9.735321
51.936299,0.360340,-0.933024,-9.717214
51.969610,0.338941,-0.939309,-9.743701
52.003079,0.347321,-0.942601,-9.736967
52.036381,0.351511,-0.933173,-9.733525
52.069629,0.349716,-0.933473,-9.733675
52.102990,0.350015,-0.934371,-9.728288
52.136092,0.344927,-0.938710,-9.740409
52.169634,0.351661,-0.939009,-9.728138
52.202933,0.348818,-0.929732,-9.741905
52.236330,0.354803,-0.944097,-9.732927
52.269653,0.351661,-0.938411,-9.735770
52.302918,0.351212,-0.940805,-9.730084
52.336268,0.352708,-0.943948,-9.732328
52.369605,0.353307,-0.939758,-9.740110
52.402959,0.347321,-0.934371,-9.749537
52.436280,0.353307,-0.942451,-9.727989
52.469611,0.346274,-0.942751,-9.736967
52.502942,0.344328,-0.940057,-9.738314
52.536331,0.347920,-0.952477,-9.747592
52.569701,0.347022,-0.947090,-9.737566
52.602935,0.353157,-0.941553,-9.735620
52.636342,0.349117,-0.943948,-9.738464
52.669668,0.346423,-0.945743,-9.731580
52.703007,0.345825,-0.936914,-9.740110
52.736297,0.352110,-0.946492,-9.738763
52.769651,0.355103,-0.939907,-9.755373
52.802811,0.358694,-0.940805,-9.732029
52.836341,0.347321,-0.947240,-9.726492
52.869668,0.341036,-0.946791,-9.739362
52.902968,0.354205,-0.940356,-9.737566
52.936302,0.353756,-0.939009,-9.734723
52.969629,0.345526,-0.941553,-9.724547
53.002946,0.336996,-0.926888,-9.728587
53.036314,0.345376,-0.942002,-9.745347
53.069641,0.343431,-0.933473,-9.739810
53.102941,0.362585,-0.942900,-9.728737
53.136238,0.345226,-0.940656,-9.745796
53.169603,0.350314,-0.943948,-9.729186
53.202937,0.340138,-0.942751,-9.728138
53.236312,0.340737,-0.941853,-9.732029
53.269596,0.349566,-0.941703,-9.745647
53.302565,0.347022,-0.949335,-9.729934
53.336303,0.345077,-0.936166,-9.733675
53.369588,0.342233,-0.935717,-9.736967
53.402540,0.347172,-0.938710,-9.738913
53.436266,0.338642,-0.940506,-9.724547
53.468967,0.345526,-0.952777,-9.737416
53.502944,0.336248,-0.940805,-9.742205
53.535498,0.348369,-0.942302,-9.744898
53.569586,0.350763,-0.940805,-9.726792
53.602937,0.342982,-0.946043,-9.725594
53.636315,0.345825,-0.940356,-9.739362
53.669589,0.351362,-0.942002,-9.741008
53.702928,0.344628,-0.940506,-9.734423
53.736310,0.348369,-0.933772,-9.732029
53.769591,0.349865,-0.939907,-9.733376
53.802417,0.346872,-0.949933,-9.741756
53.836307,0.347172,-0.938860,-9.739362
53.869589,0.350015,-0.943050,-9.735022
53.902790,0.348668,-0.931527,-9.733077
53.936263,0.340587,-0.942451,-9.739062
53.969660,0.357347,-0.939309,-9.737865
54.003006,0.345675,-0.943948,-9.748639
54.036386,0.354055,-0.944696,-9.751034
54.069586,0.344029,-0.933024,-9.731580
54.102940,0.346723,-0.929432,-9.741457
54.136299,0.341036,-0.936316,-9.742654
54.169594,0.338193,-0.933024,-9.728737
54.202942,0.347770,-0.942601,-9.739511
54.236302,0.348967,-0.942451,-9.741905
54.269596,0.347321,-0.940656,-9.750585
54.302940,0.356300,-0.941853,-9.739810
54.336339,0.350763,-0.943349,-9.724547
54.369585,0.344478,-0.936765,-9.733825
54.402549,0.358395,-0.935568,-9.741606
54.436314,0.348219,-0.931677,-9.735920
54.469598,0.349117,-0.937962,-9.734423
54.502951,0.347321,-0.939608,-9.729934
54.536312,0.349117,-0.939907,-9.730832
54.569664,0.350015,-0.940955,-9.733226
54.602935,0.359143,-0.936765,-9.740259
54.636301,0.350314,-0.936316,-9.739511
54.669642,0.346573,-0.934221,-9.749837
54.702929,0.354504,-0.943199,-9.738613
54.736297,0.356599,-0.948736,-9.739062
54.769672,0.340438,-0.936765,-9.732179
54.802938,0.349267,-0.941404,-9.736369
54.836301,0.351811,-0.937962,-9.747742
54.869656,0.339091,-0.935418,-9.730682
54.902393,0.348369,-0.949335,-9.735172
54.936336,0.340138,-0.937812,-9.723499
54.969645,0.336996,-0.947389,-9.745946
55.002815,0.348518,-0.927786,-9.744449
55.036341,0.355103,-0.941553,-9.733525
55.069673,0.353906,-0.934371,-9.716017
55.102929,0.347621,-0.939009,-9.747592
55.136317,0.345077,-0.940506,-9.741756
55.169646,0.350164,-0.932276,-9.723499
55.202945,0.348668,-0.947389,-9.740708
55.236311,0.351511,-0.934221,-9.726043
55.269675,0.345974,-0.945743,-9.738913
55.302942,0.349117,-0.937812,-9.736668
55.336275,0.348668,-0.939458,-9.732478
55.369663,0.347172,-0.947389,-9.743402
55.402935,0.348069,-0.944546,-9.749088
55.436336,0.347321,-0.941703,-9.726941
55.469645,0.339689,-0.929582,-9.741457
55.502539,0.339241,-0.939309,-9.733974
55.536290,0.336547,-0.941104,-9.741157
55.569625,0.350164,-0.939309,-9.732777
55.602992,0.347770,-0.946192,-9.742654
55.636297,0.342832,-0.922399,-9.732777
55.669594,0.339241,-0.939309,-9.731430
55.702936,0.348818,-0.937812,-9.723050
55.736340,0.346423,-0.939907,-9.737865
55.769609,0.345825,-0.938411,-9.741756
55.802396,0.345526,-0.941853,-9.744000
55.836278,0.343580,-0.936914,-9.741905
55.869650,0.351511,-0.943798,-9.733974
55.902929,0.342832,-0.939458,-9.739511
55.936260,0.346723,-0.937363,-9.737566
55.969660,0.343131,-0.934819,-9.745347
56.002434,0.345675,-0.943050,-9.741756
56.036034,0.346274,-0.944097,-9.735471
56.069603,0.339839,-0.941553,-9.737117
56.102954,0.347920,-0.930330,-9.749837
56.136823,0.340737,-0.936615,-9.738763
56.169600,0.339390,-0.935268,-9.743402
56.202932,0.346423,-0.939608,-9.736818
56.236870,0.344628,-0.942900,-9.735920
56.269602,0.345675,-0.937812,-9.733974
56.302977,0.351212,-0.947389,-9.736967
56.336343,0.345675,-0.942751,-9.742803
56.369635,0.350763,-0.936166,-9.746544
56.403007,0.349716,-0.929732,-9.747742
56.436280,0.353008,-0.944546,-9.732478
56.469624,0.341934,-0.938411,-9.716616
56.502970,0.344478,-0.944546,-9.749088
56.536668,0.340887,-0.940506,-9.749986
56.569585,0.352409,-0.930480,-9.736967
56.602939,0.352409,-0.941703,-9.733226
56.636354,0.351212,-0.940805,-9.741157
56.669590,0.345974,-0.941404,-9.743701
56.702931,0.349865,-0.943948,-9.741606
56.736314,0.353606,-0.939159,-9.737117
56.769587,0.355103,-0.931378,-9.732328
56.802933,0.351362,-0.935268,-9.737865
56.836297,0.351811,-0.940656,-9.737117
56.869592,0.348967,-0.931228,-9.735770
56.902934,0.352858,-0.943349,-9.735321
56.936312,0.349865,-0.936466,-9.735471
56.969588,0.348818,-0.943648,-9.735172
57.003038,0.344179,-0.935119,-9.741606
57.036366,0.343879,-0.933323,-9.741756
57.069591,0.346872,-0.934670,-9.737117
57.102928,0.348967,-0.937962,-9.739960
57.136352,0.346723,-0.941853,-9.739661
57.169591,0.339839,-0.934819,-9.736668
57.202937,0.339839,-0.942002,-9.718262
57.236307,0.342084,-0.937962,-9.730084
57.269592,0.340288,-0.938411,-9.745796
57.302938,0.353756,-0.932724,-9.731281
57.336327,0.337295,-0.943948,-9.749238
57.369580,0.337594,-0.945294,-9.751632
57.402935,0.341635,-0.942451,-9.739212
57.436311,0.331010,-0.932425,-9.735321
57.469591,0.332656,-0.933173,-9.746095
57.502930,0.358694,-0.941853,-9.745796
57.536365,0.347920,-0.930031,-9.726492
57.569596,0.351661,-0.931976,-9.726193
57.602929,0.347471,-0.930779,-9.738314
57.636344,0.340737,-0.938561,-9.728587
57.669590,0.349117,-0.931378,-9.742504
57.702938,0.346872,-0.916413,-9.764202
57.736317,0.351212,-0.923746,-9.746395
57.769597,0.346423,-0.935717,-9.746095
57.802934,0.356449,-0.923896,-9.734423
57.836301,0.345376,-0.934520,-9.757917
57.869597,0.362585,-0.924644,-9.740708
57.902934,0.352110,-0.928684,-9.746993
57.936315,0.364830,-0.919257,-9.714371
57.969600,0.363632,-0.920005,-9.745497
58.002928,0.380841,-0.912523,-9.760012
58.036270,0.380392,-0.908782,-9.744150
58.069589,0.376801,-0.914618,-9.757468
58.102931,0.378148,-0.916264,-9.788145
58.136315,0.378297,-0.917760,-9.795927
58.169596,0.412416,-0.897259,-9.717663
58.202944,0.431121,-0.876159,-9.734274
58.236322,0.433516,-0.870473,-9.747891
58.269587,0.452371,-0.878703,-9.768692
58.302517,0.471525,-0.870772,-9.766746
58.336314,0.499807,-0.858502,-9.749388
58.369598,0.510582,-0.852666,-9.742504
58.402992,0.543503,-0.843687,-9.761209
58.436346,0.567895,-0.829022,-9.737566
58.469635,0.585254,-0.822438,-9.745946
58.502920,0.627004,-0.812711,-9.702100
58.536180,0.643165,-0.799842,-9.723649
58.569648,0.678481,-0.801488,-9.693720
58.602930,0.682521,-0.774402,-9.680851
58.636301,0.681773,-0.781585,-9.722602
58.669579,0.689854,-0.789217,-9.742504
58.702958,0.676985,-0.787421,-9.770637
58.736307,0.710355,-0.789217,-9.785751
58.769583,0.716042,-0.779939,-9.752680
58.802929,0.740583,-0.770960,-9.727240
58.836296,0.768566,-0.762281,-9.716616
58.869585,0.696139,-0.740433,-9.779316
58.902941,0.803433,-0.758839,-9.772882
58.936297,0.788768,-0.748813,-9.717214
58.969606,0.793257,-0.724571,-9.739960
59.003006,0.833212,-0.722027,-9.731730
59.036309,0.913271,-0.740882,-9.705692
59.069582,0.787122,-0.674740,-9.680702
59.102931,0.848625,-0.705118,-9.726941
59.136372,0.839497,-0.715593,-9.683994
59.169579,0.832613,-0.718885,-9.724697
59.202941,0.860896,-0.703023,-9.724248
59.236313,0.859250,-0.698833,-9.729784
59.269597,0.872269,-0.681773,-9.708385
59.302935,0.894117,-0.683868,-9.683096
59.336308,0.886634,-0.688058,-9.665887
59.369668,0.864487,-0.709008,-9.734423
59.402975,0.841891,-0.740733,-9.753727
59.436288,0.850571,-0.724122,-9.724996
59.469592,0.846231,-0.731455,-9.712276
59.502973,0.857155,-0.718286,-9.684592
59.536334,0.849074,-0.739087,-9.684742
59.569652,0.821540,-0.735345,-9.697611
59.602930,0.741630,-0.766471,-9.671723
59.636301,0.801039,-0.788768,-9.796076
59.669641,0.749412,-0.810017,-9.735620
59.702944,0.761234,-0.797148,-9.763304
59.736275,0.741032,-0.794005,-9.693272
59.769675,0.722177,-0.782932,-9.726492
59.802940,0.707063,-0.798345,-9.746395
59.836275,0.690901,-0.823335,-9.772133
59.869630,0.699431,-0.815404,-9.749687
59.902943,0.669503,-0.823784,-9.715568
59.936313,0.658878,-0.839198,-9.735471
59.969584,0.663367,-0.840544,-9.757917
60.003016,0.651096,-0.840096,-9.720357
60.036262,0.630595,-0.843537,-9.756421
60.069596,0.625807,-0.844585,-9.754625
60.102410,0.633888,-0.853863,-9.741905
60.136314,0.634187,-0.845782,-9.724248
60.169609,0.640472,-0.851768,-9.745347
60.202986,0.626555,-0.835906,-9.735920
60.236302,0.615930,-0.854312,-9.744449
60.269696,0.623263,-0.876159,-9.756570
60.302992,0.624610,-0.846979,-9.724397
60.336310,0.607999,-0.848476,-9.745048
60.368995,0.622964,-0.844136,-9.742953
60.402250,0.632092,-0.832613,-9.714072
60.436274,0.617576,-0.852666,-9.738164
60.469602,0.624460,-0.836504,-9.728737
60.502964,0.633439,-0.836205,-9.716317
60.536253,0.630895,-0.846530,-9.729485
60.569597,0.618923,-0.843687,-9.744599
60.603034,0.622515,-0.840245,-9.767195
60.636267,0.634935,-0.831715,-9.723050
60.669662,0.637778,-0.833810,-9.738763
60.702929,0.622515,-0.827226,-9.723948
60.736294,0.634187,-0.837701,-9.746694
60.769663,0.626705,-0.815404,-9.725894
60.802945,0.627154,-0.829471,-9.741905
60.836305,0.629099,-0.835157,-9.738613
60.869621,0.631942,-0.839048,-9.702699
60.902940,0.633289,-0.828872,-9.741307
60.936313,0.634187,-0.838898,-9.762706
60.969621,0.625508,-0.838898,-9.715868
61.002717,0.626705,-0.835756,-9.722602
61.036272,0.626256,-0.833960,-9.737715
61.069627,0.628800,-0.842340,-9.724996
61.102937,0.618624,-0.830967,-9.727540
61.136334,0.624759,-0.837252,-9.716616
61.169616,0.629099,-0.827675,-9.722153
61.202963,0.621018,-0.841442,-9.727390
61.236345,0.624610,-0.833960,-9.719908
61.269634,0.623861,-0.838449,-9.739362
61.302931,0.628351,-0.832314,-9.743552
61.336345,0.616230,-0.840096,-9.738314
61.369627,0.619971,-0.843837,-9.730084
61.402939,0.626705,-0.835906,-9.743701
61.436278,0.619522,-0.833362,-9.727989
61.469651,0.620869,-0.847428,-9.740559
61.502945,0.611890,-0.842490,-9.727689
61.536379,0.616828,-0.835307,-9.750285
61.569604,0.616529,-0.830818,-9.723350
61.602934,0.628201,-0.834110,-9.715718
61.636359,0.619522,-0.846680,-9.737267
61.669104,0.613087,-0.837851,-9.730383
61.702936,0.627752,-0.844136,-9.734423
61.736385,0.623263,-0.845483,-9.740559
61.769633,0.615481,-0.840245,-9.729335
61.802988,0.628500,-0.839796,-9.736219
61.836339,0.616529,-0.839647,-9.731580
61.869619,0.627303,-0.835307,-9.735022
61.902955,0.623861,-0.846231,-9.724697
61.936269,0.630595,-0.848775,-9.738314
61.969629,0.618025,-0.839048,-9.738763
62.003006,0.620569,-0.847278,-9.723948
62.036309,0.620569,-0.856556,-9.735022
62.069587,0.616679,-0.843388,-9.722302
62.102927,0.620270,-0.845034,-9.718561
62.136309,0.621766,-0.851169,-9.735770
62.169037,0.621318,-0.842490,-9.725744
62.202956,0.622964,-0.854461,-9.717663
62.236293,0.619821,-0.848775,-9.744150
62.269590,0.631344,-0.834110,-9.739960
62.302935,0.614883,-0.844734,-9.741307
62.335573,0.613237,-0.848625,-9.725145
62.369596,0.616230,-0.850271,-9.734124
62.402932,0.619073,-0.853414,-9.726193
62.436374,0.625208,-0.846081,-9.735172
62.469619,0.619522,-0.842041,-9.732927
62.503028,0.624310,-0.842191,-9.736518
62.536331,0.626106,-0.846829,-9.722901
62.569674,0.613237,-0.846231,-9.737267
62.602924,0.614733,-0.845034,-9.737416
62.636271,0.613536,-0.849822,-9.740259
62.668758,0.614434,-0.846979,-9.742654
62.702932,0.620569,-0.847578,-9.739362
62.736325,0.614584,-0.844585,-9.742354
62.769658,0.614883,-0.853264,-9.742354
62.802935,0.616529,-0.845333,-9.743851
62.836315,0.606353,-0.854461,-9.738164
62.869703,0.616828,-0.843837,-9.748939
62.902937,0.613985,-0.850720,-9.725744
62.936304,0.606503,-0.857155,-9.733376
62.969637,0.609346,-0.842789,-9.731430
63.002927,0.602014,-0.850571,-9.744449
63.036311,0.611142,-0.840245,-9.741756
63.069629,0.606802,-0.845333,-9.735022
63.102925,0.610244,-0.852516,-9.737267
63.136343,0.622515,-0.861195,-9.730832
63.169658,0.608748,-0.846530,-9.738763
63.202934,0.614733,-0.851319,-9.748041
63.236270,0.615781,-0.846081,-9.722901
63.269668,0.607999,-0.853563,-9.720656
63.302934,0.612489,-0.848775,-9.746245
63.336274,0.611890,-0.851768,-9.734274
63.369661,0.606503,-0.845932,-9.738015
63.402935,0.614883,-0.853563,-9.730084
63.436272,0.602612,-0.846231,-9.730832
63.469632,0.609196,-0.851468,-9.729036
63.502937,0.604707,-0.850122,-9.736369
63.536276,0.614284,-0.855209,-9.727839
63.569654,0.603809,-0.851169,-9.743103
63.602941,0.612938,-0.845183,-9.730084
63.636274,0.613237,-0.849074,-9.728138
63.669726,0.604857,-0.844286,-9.730682
63.702945,0.609346,-0.855808,-9.744599
63.736303,0.610693,-0.857304,-9.727390
63.769597,0.613536,-0.849673,-9.740708
63.802938,0.608299,-0.840694,-9.732179
63.836367,0.595878,-0.844585,-9.730084
63.869148,0.604707,-0.849822,-9.730383
63.902937,0.604408,-0.854910,-9.730982
63.936319,0.609945,-0.848775,-9.736668
63.969608,0.608748,-0.846081,-9.733226
64.003029,0.609346,-0.851319,-9.753877
64.036283,0.613835,-0.851019,-9.737715
64.069640,0.605455,-0.846081,-9.734573
64.102963,0.610543,-0.851169,-9.736518
64.136357,0.611142,-0.843537,-9.746544
64.169651,0.608149,-0.847278,-9.728737
64.202897,0.606353,-0.850571,-9.730383
64.236255,0.608748,-0.842041,-9.734872
64.269626,0.609795,-0.847877,-9.731730
64.302626,0.620420,-0.846231,-9.743402
64.336298,0.609645,-0.851019,-9.729335
64.369002,0.614135,-0.846231,-9.719309
64.402937,0.605904,-0.841442,-9.738613
64.436294,0.609047,-0.848326,-9.728737
64.469626,0.602313,-0.858202,-9.734872
64.502940,0.609196,-0.849224,-9.735022
64.536259,0.613237,-0.850720,-9.745796
64.569621,0.604707,-0.852366,-9.729635
64.602971,0.607550,-0.848027,-9.743252
64.636412,0.602014,-0.849224,-9.736518
64.669592,0.613536,-0.851618,-9.722153
64.702944,0.612040,-0.854761,-9.733675
64.736336,0.614733,-0.847129,-9.737416
64.769591,0.607999,-0.844286,-9.729036
64.803004,0.610843,-0.850571,-9.725744
64.836339,0.607700,-0.845632,-9.744749
64.868808,0.608299,-0.846081,-9.748789
64.902930,0.610394,-0.846680,-9.740409
64.936341,0.619971,-0.846381,-9.739511
64.969664,0.606802,-0.849224,-9.737865
65.003001,0.607401,-0.856407,-9.732628
65.036306,0.606204,-0.851468,-9.737416
65.069664,0.596776,-0.843687,-9.728138
65.103039,0.600218,-0.848924,-9.730084
65.136275,0.606353,-0.844884,-9.737715
65.169597,0.609047,-0.849523,-9.725145
65.202978,0.603660,-0.844585,-9.729485
65.236265,0.610693,-0.848924,-9.750435
65.269624,0.608149,-0.849523,-9.747143
65.303004,0.597375,-0.846979,-9.745647
65.336373,0.606952,-0.850421,-9.722003
65.368746,0.598871,-0.855509,-9.741008
65.402966,0.610843,-0.848625,-9.738913
65.436328,0.607999,-0.852067,-9.743552
65.469628,0.616828,-0.840694,-9.734274
65.502929,0.600368,-0.844435,-9.738763
65.536329,0.608748,-0.847129,-9.732777
65.569589,0.619971,-0.853563,-9.738314
65.603017,0.604558,-0.851768,-9.723200
65.636361,0.604707,-0.834708,-9.740708
65.669592,0.607550,-0.844585,-9.743402
65.702942,0.608897,-0.846081,-9.734573
65.736330,0.602163,-0.852067,-9.724846
65.769668,0.600517,-0.849373,-9.727839
65.803045,0.607550,-0.845483,-9.724996
65.836303,0.613686,-0.850271,-9.735620
65.869590,0.609645,-0.846381,-9.729036
65.903042,0.605605,-0.844884,-9.748490
65.936344,0.612189,-0.847428,-9.734124
65.969624,0.599170,-0.848326,-9.725445
66.003013,0.604408,-0.843088,-9.750285
66.036408,0.606054,-0.850720,-9.739511
66.069672,0.610094,-0.844286,-9.726193
66.103021,0.611142,-0.849972,-9.732179
66.136410,0.607101,-0.851468,-9.739661
66.169673,0.604258,-0.847578,-9.728138
66.202943,0.605006,-0.843837,-9.738763
66.236334,0.607101,-0.843687,-9.741307
66.269623,0.617427,-0.852815,-9.729934
66.302973,0.613536,-0.851468,-9.728587
66.336322,0.607700,-0.849523,-9.735770
66.369663,0.603211,-0.848326,-9.739960
66.402973,0.611142,-0.844884,-9.739511
66.436296,0.605306,-0.848027,-9.741008
66.469619,0.609795,-0.846680,-9.720058
66.502971,0.605605,-0.843687,-9.729784
66.536383,0.605904,-0.848924,-9.736818
66.569606,0.608448,-0.840245,-9.719309
66.602941,0.607700,-0.851169,-9.753129
66.635792,0.615481,-0.844734,-9.729036
66.669630,0.605306,-0.852516,-9.737416
66.702224,0.608598,-0.845483,-9.729036
66.736305,0.596776,-0.853264,-9.718112
66.769685,0.600218,-0.846081,-9.733675
66.802994,0.617726,-0.847428,-9.747442
66.835834,0.611591,-0.846680,-9.729934
66.870145,0.609047,-0.851319,-9.723200
66.902969,0.599320,-0.844435,-9.737416
66.936278,0.616828,-0.859399,-9.733226
66.970083,0.606503,-0.852067,-9.733525
67.003038,0.606952,-0.839497,-9.723799
67.036270,0.611291,-0.843088,-9.724697
67.069663,0.610843,-0.846680,-9.747293
67.102993,0.609496,-0.846979,-9.727989
67.136293,0.600966,-0.849972,-9.733226
67.170030,0.606802,-0.850122,-9.744599
67.202991,0.600667,-0.841891,-9.738913
67.236272,0.613835,-0.843238,-9.742803
67.269892,0.612638,-0.849972,-9.731430
67.302978,0.608748,-0.843986,-9.734423
67.336280,0.601714,-0.845782,-9.742953
67.369588,0.608448,-0.847278,-9.744000
67.402987,0.609346,-0.845632,-9.724098
67.436266,0.610244,-0.844585,-9.734723
67.469628,0.602911,-0.843388,-9.722901
67.503006,0.612189,-0.849373,-9.730084
67.536364,0.613985,-0.840395,-9.729036
67.570108,0.610543,-0.848176,-9.731730
67.602982,0.611441,-0.842939,-9.739960
67.636276,0.614135,-0.848027,-9.736069
67.670052,0.608299,-0.844136,-9.734423
67.703017,0.612489,-0.850122,-9.738314
67.736277,0.612339,-0.845183,-9.735920
67.769589,0.613985,-0.843537,-9.731430
67.802975,0.611441,-0.841143,-9.734274
67.836275,0.615033,-0.843537,-9.729635
67.869688,0.612489,-0.847578,-9.729784
67.902934,0.616828,-0.843986,-9.737117
67.936328,0.606503,-0.846381,-9.739960
67.969701,0.610992,-0.846530,-9.732777
68.002991,0.604857,-0.844734,-9.729934
68.036296,0.606353,-0.846381,-9.736668
68.070165,0.610394,-0.845333,-9.732478
68.102941,0.606204,-0.840844,-9.727091
68.136286,0.605306,-0.844884,-9.743701
68.170168,0.608598,-0.843986,-9.741307
68.202823,0.611890,-0.850271,-9.722901
68.236297,0.596327,-0.840993,-9.731131
68.270143,0.606952,-0.850571,-9.744000
68.303014,0.612489,-0.861046,-9.729485
68.336386,0.605006,-0.848924,-9.741756
68.369656,0.610244,-0.845932,-9.738314
68.402996,0.607850,-0.848176,-9.741756
68.436343,0.606204,-0.846979,-9.723499
68.469753,0.614883,-0.850421,-9.732927
68.503024,0.610543,-0.840993,-9.737566
68.536301,0.616828,-0.844734,-9.728737
68.569634,0.606952,-0.851169,-9.730682
68.603016,0.603959,-0.841891,-9.728138
68.636301,0.604857,-0.838449,-9.723649
68.669658,0.599470,-0.856257,-9.731879
68.702634,0.610693,-0.849972,-9.740858
68.736309,0.604408,-0.842041,-9.724248
68.769641,0.602463,-0.849373,-9.737117
68.802957,0.608897,-0.845632,-9.732179
68.836347,0.602163,-0.850870,-9.736967
68.869651,0.603959,-0.842041,-9.742504
68.902959,0.605605,-0.846381,-9.736967
68.936266,0.603660,-0.838749,-9.734872
68.969666,0.612938,-0.848775,-9.736518
69.002951,0.605156,-0.841442,-9.720806
69.036324,0.605755,-0.856107,-9.737267
69.069609,0.608897,-0.847877,-9.727989
69.102981,0.606952,-0.842191,-9.745497
69.136302,0.603211,-0.843088,-9.729485
69.169596,0.606204,-0.840694,-9.735770
69.202432,0.603959,-0.854312,-9.736967
69.236332,0.602911,-0.839796,-9.744000
69.269604,0.602911,-0.843388,-9.737267
69.302990,0.606503,-0.843388,-9.730084
69.336270,0.607251,-0.845483,-9.729784
69.369613,0.610394,-0.839497,-9.726792
69.403055,0.607999,-0.840245,-9.730233
69.436314,0.605306,-0.841442,-9.737267
69.469644,0.611291,-0.849523,-9.722751
69.502938,0.615182,-0.845483,-9.736369
69.536337,0.606503,-0.835906,-9.740708
69.569652,0.603360,-0.843837,-9.744449
69.603012,0.608149,-0.847578,-9.726642
69.636314,0.610094,-0.849822,-9.732628
69.669608,0.603061,-0.850571,-9.735172
69.702985,0.606503,-0.839198,-9.732927
69.736290,0.612189,-0.854461,-9.732029
69.769614,0.597824,-0.847428,-9.733675
69.802966,0.601116,-0.852217,-9.741008
69.836375,0.611441,-0.833810,-9.733376
69.869599,0.608448,-0.849074,-9.742803
69.902962,0.605306,-0.840245,-9.727540
69.936329,0.609795,-0.848625,-9.729036
69.969601,0.606653,-0.834708,-9.728737
70.003093,0.616828,-0.833511,-9.730982
70.036316,0.611591,-0.845183,-9.738314
70.069602,0.610394,-0.838749,-9.729485
70.103047,0.610992,-0.839347,-9.737117
70.136315,0.606054,-0.847727,-9.737416
70.169605,0.612040,-0.844884,-9.728288
70.203069,0.617876,-0.835307,-9.730383
70.236294,0.606503,-0.842789,-9.732777
70.269614,0.607999,-0.851169,-9.733226
70.303040,0.612040,-0.849373,-9.736518
70.336314,0.612339,-0.846979,-9.739062
70.369603,0.602463,-0.840395,-9.728138
70.402257,0.618325,-0.837552,-9.740259
70.436290,0.621018,-0.831117,-9.733226
70.469603,0.602163,-0.843837,-9.739511
70.503062,0.612788,-0.836055,-9.725295
70.536246,0.597225,-0.846530,-9.726193
70.569605,0.606802,-0.847877,-9.738763
70.602246,0.617726,-0.839946,-9.736369
70.635509,0.616828,-0.846680,-9.731580
70.668750,0.615481,-0.843388,-9.735321
70.703014,0.613686,-0.849074,-9.738464
70.736265,0.614883,-0.849673,-9.733974
70.769641,0.611740,-0.847428,-9.735770
70.802970,0.606503,-0.846081,-9.750734
70.836304,0.600667,-0.845632,-9.732927
70.869603,0.597375,-0.843986,-9.724248
70.902960,0.613536,-0.844286,-9.747592
70.935549,0.604558,-0.845034,-9.731281
70.969630,0.617128,-0.837552,-9.731430
71.002998,0.613985,-0.838599,-9.728288
71.036268,0.607401,-0.849972,-9.741008
71.069621,0.607101,-0.843687,-9.729934
71.102994,0.603959,-0.843687,-9.736668
71.136344,0.612040,-0.845932,-9.727540
71.169665,0.608748,-0.847278,-9.746245
71.202922,0.607251,-0.844734,-9.734423
71.236310,0.610543,-0.836205,-9.744898
71.269701,0.604857,-0.837252,-9.730682
71.303060,0.600667,-0.853264,-9.721105
71.336318,0.606353,-0.835606,-9.738164
71.369606,0.604857,-0.840993,-9.740409
71.402953,0.604109,-0.842639,-9.738763
71.435488,0.617876,-0.847428,-9.729485
71.469606,0.609945,-0.847428,-9.739661
71.502721,0.603510,-0.842939,-9.732179
71.536369,0.601415,-0.840096,-9.735620
71.569609,0.609047,-0.843537,-9.739511
71.603013,0.620569,-0.844286,-9.725445
71.636268,0.606503,-0.842191,-9.725594
71.669594,0.610244,-0.838599,-9.738913
71.703001,0.606204,-0.841293,-9.732628
71.736276,0.610244,-0.849673,-9.728438
71.769646,0.613835,-0.849224,-9.739212
71.802975,0.607700,-0.838749,-9.732628
71.836357,0.611291,-0.840694,-9.732179
71.869609,0.609346,-0.851019,-9.742803
71.902971,0.612189,-0.850271,-9.738164
71.936350,0.606653,-0.845483,-9.729335
71.969623,0.606503,-0.850571,-9.737416
72.002550,0.601565,-0.841891,-9.735920
72.036264,0.606952,-0.845333,-9.735172
72.070099,0.607850,-0.846979,-9.717214
72.102954,0.608598,-0.846381,-9.739362
72.136340,0.600816,-0.845034,-9.737566
72.169957,0.607700,-0.843388,-9.747293
72.202967,0.611142,-0.835307,-9.729784
72.236340,0.603061,-0.839647,-9.737416
72.270012,0.604258,-0.853713,-9.730533
72.302942,0.608598,-0.843537,-9.728587
72.336339,0.606503,-0.849074,-9.746993
72.369932,0.610693,-0.839946,-9.731580
72.403009,0.604109,-0.838300,-9.735022
72.436268,0.604258,-0.848476,-9.728887
72.469897,0.607251,-0.852666,-9.741457
72.502371,0.602014,-0.849822,-9.725295
72.535509,0.607251,-0.843986,-9.739062
72.569597,0.600218,-0.841592,-9.741008
72.602928,0.612489,-0.845483,-9.734872
72.636269,0.604707,-0.844286,-9.732029
72.669700,0.602463,-0.851768,-9.740858
72.702983,0.599619,-0.843687,-9.727390
72.736334,0.610244,-0.836803,-9.730233
72.769588,0.600368,-0.852815,-9.731281
72.802979,0.606054,-0.841742,-9.745048
72.836302,0.599470,-0.852516,-9.725744
72.869620,0.602463,-0.848027,-9.728887
72.902976,0.605006,-0.847877,-9.752829
72.936317,0.605156,-0.848326,-9.732628
72.969607,0.621467,-0.844435,-9.748939
73.002980,0.608598,-0.843388,-9.738613
73.036309,0.609496,-0.846680,-9.733226
73.069671,0.618325,-0.842789,-9.735321
73.102936,0.609346,-0.845782,-9.733525
73.136262,0.602463,-0.839048,-9.736668
73.169593,0.612938,-0.850421,-9.730084
73.202970,0.607850,-0.845782,-9.725594
73.236265,0.612189,-0.831416,-9.744599
73.269627,0.611591,-0.837103,-9.737267
73.302990,0.600218,-0.843687,-9.733974
73.336330,0.609945,-0.845782,-9.733226
73.369601,0.609346,-0.842939,-9.736967
73.402992,0.609945,-0.852217,-9.735321
73.436280,0.604109,-0.842789,-9.731281
73.469586,0.603809,-0.835157,-9.735172
73.502919,0.601116,-0.848476,-9.737715
73.536326,0.609496,-0.846979,-9.734274
73.569595,0.610992,-0.842490,-9.720357
73.602944,0.611291,-0.846530,-9.739362
73.636307,0.611890,-0.847877,-9.730982
73.669615,0.603211,-0.848775,-9.745796
73.701973,0.605306,-0.838599,-9.736818
73.736299,0.613686,-0.838749,-9.733974
73.769616,0.607101,-0.848027,-9.739511
73.802994,0.613386,-0.849074,-9.737865
73.836315,0.611441,-0.847877,-9.736518
73.869592,0.614584,-0.842639,-9.742953
73.902923,0.612489,-0.838449,-9.733675
73.936332,0.606054,-0.846381,-9.721704
73.969671,0.615631,-0.844884,-9.729784
74.003010,0.609496,-0.838898,-9.732478
74.036335,0.607401,-0.844884,-9.729934
74.069588,0.607999,-0.849074,-9.737566
74.102947,0.604558,-0.832763,-9.734423
74.136299,0.608448,-0.844286,-9.732179
74.169695,0.602911,-0.841143,-9.748490
74.202693,0.605605,-0.840395,-9.745347
74.236326,0.600966,-0.850421,-9.744300
74.269624,0.607251,-0.843687,-9.734872
74.302163,0.608897,-0.838449,-9.728138
74.336344,0.610094,-0.849673,-9.736818
74.369656,0.605455,-0.845333,-9.748639
74.402932,0.608897,-0.855958,-9.724397
74.436264,0.611890,-0.850122,-9.722302
74.469638,0.602911,-0.848027,-9.745198
74.502985,0.597973,-0.843687,-9.741606
74.536321,0.621916,-0.844286,-9.708236
74.569669,0.610244,-0.844585,-9.732927
74.602946,0.607700,-0.845632,-9.751183
74.636337,0.609945,-0.841891,-9.733825
74.669626,0.601265,-0.836205,-9.738613
74.702934,0.608149,-0.847428,-9.741157
74.736296,0.612788,-0.843088,-9.729485
74.769628,0.604258,-0.832913,-9.724547
74.802958,0.601116,-0.844734,-9.739212
74.836332,0.601714,-0.843088,-9.738015
74.869629,0.603510,-0.840694,-9.739810
74.902996,0.607700,-0.842789,-9.744449
74.936265,0.597973,-0.844884,-9.745647
74.969632,0.602014,-0.854312,-9.733226
75.003066,0.597375,-0.850421,-9.727540
75.036311,0.599021,-0.847428,-9.730383
75.069651,0.605156,-0.840544,-9.728438
75.102991,0.600368,-0.840993,-9.740110
75.136308,0.600816,-0.841143,-9.736219
75.169226,0.608299,-0.844435,-9.726193
75.202917,0.604109,-0.844884,-9.721704
75.236317,0.594681,-0.847877,-9.734274
75.269659,0.605306,-0.852815,-9.740110
75.302951,0.612788,-0.841592,-9.733675
75.335828,0.611890,-0.847578,-9.731131
75.369621,0.601565,-0.844585,-9.725445
75.402903,0.605904,-0.855958,-9.741457
75.436275,0.602911,-0.840096,-9.734423
75.469593,0.613985,-0.838898,-9.738015
75.503010,0.605006,-0.835606,-9.721853
75.536241,0.607550,-0.841442,-9.733675
75.569605,0.603061,-0.845483,-9.742354
75.602940,0.611291,-0.837252,-9.738314
75.636270,0.605156,-0.843238,-9.734274
75.669673,0.607700,-0.842639,-9.737865
75.702942,0.608299,-0.840844,-9.729485
75.736272,0.612788,-0.838749,-9.735172
75.769587,0.608448,-0.846530,-9.737416
75.802945,0.604857,-0.848775,-9.735770
75.836267,0.603809,-0.836055,-9.733974
75.869610,0.616529,-0.845034,-9.749088
75.902914,0.616978,-0.842041,-9.739062
75.936261,0.606054,-0.847727,-9.742354
75.969613,0.603660,-0.850271,-9.724547
76.003062,0.606204,-0.844286,-9.726642
76.036333,0.610843,-0.842490,-9.738613
76.069593,0.602762,-0.849373,-9.745347
76.102955,0.610693,-0.845632,-9.733226
76.136404,0.605006,-0.836803,-9.739062
76.169630,0.611591,-0.844734,-9.729635
76.202958,0.608897,-0.844734,-9.730682
76.236277,0.611441,-0.839796,-9.744749
76.269598,0.618025,-0.835756,-9.740559
76.302978,0.609346,-0.845932,-9.735770
76.336281,0.610094,-0.840544,-9.736967
76.369611,0.610394,-0.844585,-9.734274
76.402779,0.603660,-0.836803,-9.739810
76.436331,0.605904,-0.853114,-9.735471
76.469665,0.612638,-0.855808,-9.726792
76.502965,0.612638,-0.841293,-9.731430
76.536406,0.607401,-0.839497,-9.735471
76.569761,0.599470,-0.845782,-9.726492
76.602961,0.602762,-0.847278,-9.736069
76.636258,0.596327,-0.848027,-9.735620
76.669643,0.600816,-0.853863,-9.733825
76.702989,0.601265,-0.849224,-9.740559
76.736307,0.605306,-0.836055,-9.727689
76.769629,0.606503,-0.845483,-9.729036
76.802913,0.600368,-0.847129,-9.739212
76.836308,0.608149,-0.837851,-9.732179
76.869692,0.604258,-0.851319,-9.732328
76.902638,0.608748,-0.843388,-9.732478
76.936272,0.599320,-0.833661,-9.737566
76.969640,0.610693,-0.839347,-9.729635
77.003013,0.609196,-0.845183,-9.736668
77.036270,0.608598,-0.839647,-9.734573
77.069644,0.597674,-0.852217,-9.729335
77.103006,0.608748,-0.842490,-9.733825
77.136274,0.602463,-0.852067,-9.735172
77.169647,0.608748,-0.843837,-9.738613
77.202954,0.602612,-0.845333,-9.740409
77.236253,0.605455,-0.848476,-9.732328
77.269603,0.601714,-0.843687,-9.738164
77.302947,0.595130,-0.840993,-9.740259
77.336274,0.609945,-0.850571,-9.740559
77.369663,0.606653,-0.840694,-9.736818
77.402923,0.604109,-0.849673,-9.753428
77.436261,0.609795,-0.844286,-9.730832
77.469639,0.602762,-0.850421,-9.743252
77.502921,0.607999,-0.849074,-9.733226
77.536269,0.605904,-0.841143,-9.743402
77.569646,0.599170,-0.840395,-9.733974
77.602914,0.603660,-0.846979,-9.731131
77.636292,0.610543,-0.851618,-9.735172
77.669602,0.602463,-0.841891,-9.737715
77.702919,0.610094,-0.841143,-9.735471
77.736266,0.602163,-0.842939,-9.729036
77.769630,0.603211,-0.840694,-9.743552
77.802926,0.598871,-0.845183,-9.740110
77.836267,0.603510,-0.848326,-9.743552
77.869635,0.604258,-0.854611,-9.723649
77.902913,0.606653,-0.851917,-9.740110
77.936263,0.603360,-0.845333,-9.738164
77.969653,0.609047,-0.843837,-9.743402
78.002960,0.605904,-0.849224,-9.740259
78.036310,0.602762,-0.838599,-9.741457
78.069605,0.615332,-0.844286,-9.737267
78.102987,0.612638,-0.844884,-9.734124
78.136325,0.600816,-0.843986,-9.724846
78.169676,0.602313,-0.844286,-9.732029
78.202957,0.611142,-0.848775,-9.736818
78.236265,0.599320,-0.840544,-9.728737
78.269622,0.611441,-0.844435,-9.744300
78.302948,0.612040,-0.841592,-9.729335
78.336304,0.605306,-0.841293,-9.745198
78.369645,0.611142,-0.837402,-9.726043
78.402954,0.607850,-0.838599,-9.736668
78.436301,0.599619,-0.843537,-9.746395
78.469638,0.605755,-0.846979,-9.740110
78.502956,0.608299,-0.836953,-9.737117
78.536304,0.588546,-0.844734,-9.732628
78.569638,0.601116,-0.850122,-9.738913
78.602917,0.612788,-0.838300,-9.737117
78.636297,0.609645,-0.838749,-9.721704
78.669630,0.606802,-0.838749,-9.736369
78.702950,0.607700,-0.844884,-9.731131
78.736305,0.600517,-0.847278,-9.724248
78.769739,0.612189,-0.840096,-9.740409
78.802919,0.610843,-0.838449,-9.728887
78.836310,0.611142,-0.842041,-9.731879
78.869605,0.601714,-0.842340,-9.737117
78.902968,0.605755,-0.841891,-9.732478
78.936267,0.610394,-0.846081,-9.740559
78.969705,0.605605,-0.848924,-9.731580
79.003106,0.609196,-0.840694,-9.742055
79.036301,0.600966,-0.837252,-9.728587
79.069649,0.607700,-0.854162,-9.733226
79.102986,0.602612,-0.843238,-9.738464
79.136307,0.607550,-0.845034,-9.735471
79.169601,0.600218,-0.836654,-9.725145
79.202953,0.601415,-0.850571,-9.739212
79.236297,0.601864,-0.844286,-9.733226
79.269606,0.605755,-0.848027,-9.740559
79.302918,0.609645,-0.842340,-9.734872
79.336301,0.599769,-0.845632,-9.737267
79.369626,0.604558,-0.849224,-9.733077
79.403020,0.611591,-0.843388,-9.736668
79.436273,0.604558,-0.842939,-9.740559
79.469637,0.606952,-0.843837,-9.732029
79.503010,0.609196,-0.837851,-9.739810
79.536270,0.606353,-0.841442,-9.724697
79.569653,0.611142,-0.842789,-9.724996
79.602962,0.605156,-0.843986,-9.728887
79.636265,0.608748,-0.842789,-9.753129
79.669679,0.609795,-0.836803,-9.728438
79.702993,0.600667,-0.849074,-9.732628
79.736277,0.606204,-0.847428,-9.744599
79.769638,0.596177,-0.843238,-9.742205
79.802839,0.609645,-0.839647,-9.731580
79.836271,0.608897,-0.847727,-9.738763
79.869591,0.606653,-0.841143,-9.729934
79.902521,0.602163,-0.844585,-9.742953
79.936278,0.607101,-0.848176,-9.732927
79.969638,0.602463,-0.854012,-9.724846
80.002995,0.595280,-0.844286,-9.746395
80.036417,0.603360,-0.839347,-9.742055
80.069610,0.607999,-0.841293,-9.735770
80.102927,0.602911,-0.842490,-9.742803
80.136385,0.612638,-0.844884,-9.729934
80.169610,0.610244,-0.845483,-9.726642
80.202941,0.605455,-0.852666,-9.737715
80.236265,0.607101,-0.841742,-9.732927
80.269612,0.614135,-0.843088,-9.732628
80.302623,0.620569,-0.848027,-9.733825
80.336346,0.609047,-0.847877,-9.729635
80.369678,0.602463,-0.840694,-9.740858
80.402937,0.605455,-0.842191,-9.737117
80.436344,0.605755,-0.846081,-9.732478
80.469679,0.603061,-0.844585,-9.742205
80.502921,0.600068,-0.846530,-9.742654
80.536314,0.607700,-0.840993,-9.732029
80.569650,0.604258,-0.853114,-9.744599
80.603023,0.612489,-0.848476,-9.723050
80.636311,0.611142,-0.842340,-9.726193
80.669602,0.598721,-0.844585,-9.748939
80.702976,0.609496,-0.844286,-9.728887
80.736306,0.611142,-0.851768,-9.722153
80.769599,0.601714,-0.848476,-9.744150
80.802462,0.611142,-0.850571,-9.737267
80.836326,0.607700,-0.842639,-9.727240
80.869590,0.602762,-0.844884,-9.725145
80.903066,0.605755,-0.846381,-9.737416
80.936340,0.603510,-0.848027,-9.729186
80.969624,0.608598,-0.840096,-9.730383
81.002968,0.609645,-0.846381,-9.745048
81.036269,0.605306,-0.840395,-9.730233
81.069640,0.605156,-0.844585,-9.732029
81.103074,0.606952,-0.839198,-9.735620
81.136384,0.604408,-0.841592,-9.737566
81.169641,0.603211,-0.836953,-9.733675
81.202949,0.602911,-0.848326,-9.741008
81.236301,0.609645,-0.840544,-9.736818
81.269599,0.607401,-0.839347,-9.735620
81.302290,0.607101,-0.848476,-9.737416
81.336308,0.603061,-0.836055,-9.733525
81.368833,0.601116,-0.840096,-9.733376
81.403014,0.606353,-0.840395,-9.734423
81.436299,0.607401,-0.844585,-9.735770
81.469608,0.609196,-0.848775,-9.734124
81.502938,0.603510,-0.848326,-9.732328
81.536310,0.611291,-0.832314,-9.730084
81.569631,0.614584,-0.840544,-9.737865
81.603018,0.608598,-0.850571,-9.738164
81.636300,0.604258,-0.843388,-9.741606
81.669720,0.602313,-0.839198,-9.739362
81.702985,0.610543,-0.836354,-9.734124
81.736367,0.607251,-0.843537,-9.737715
81.769638,0.613835,-0.848027,-9.727240
81.802957,0.613835,-0.839497,-9.733825
81.836306,0.610543,-0.841592,-9.724397
81.869618,0.599170,-0.842939,-9.725594
81.902954,0.610843,-0.842490,-9.733825
81.936375,0.596477,-0.840096,-9.741756
81.969602,0.608448,-0.834259,-9.734872
82.002969,0.606802,-0.840844,-9.729635
82.036341,0.600517,-0.844734,-9.732628
82.069604,0.606353,-0.840096,-9.736818
82.102979,0.607101,-0.837552,-9.735471
82.136353,0.595878,-0.850720,-9.737416
82.169598,0.616080,-0.839497,-9.736518
82.202984,0.607251,-0.843837,-9.741008
82.236311,0.593634,-0.837402,-9.722003
82.269600,0.603959,-0.848625,-9.738015
82.302982,0.596028,-0.834409,-9.733675
82.336376,0.606054,-0.840544,-9.737267
82.369605,0.596926,-0.852366,-9.737715
82.402954,0.605755,-0.846979,-9.730383
82.436390,0.605455,-0.842789,-9.739062
82.469603,0.603510,-0.830369,-9.722003
82.502943,0.604857,-0.844136,-9.747143
82.536290,0.603660,-0.834409,-9.733825
82.569606,0.599619,-0.848027,-9.737267
82.602928,0.605306,-0.851019,-9.732328
82.636378,0.609795,-0.841891,-9.723948
82.669604,0.600667,-0.843837,-9.736668
82.703033,0.605156,-0.844435,-9.732179
82.736281,0.604857,-0.838300,-9.731281
82.769717,0.613386,-0.854312,-9.734723
82.802957,0.611291,-0.835157,-9.712875
82.836303,0.605904,-0.855658,-9.741457
82.868926,0.585254,-0.848625,-9.744449
82.902935,0.600218,-0.842041,-9.738763
82.936307,0.599170,-0.843388,-9.747143
82.969607,0.595280,-0.843837,-9.746544
83.003040,0.600068,-0.846829,-9.737566
83.036080,0.605306,-0.840993,-9.735620
83.069594,0.596926,-0.840544,-9.733974
83.102967,0.594681,-0.846231,-9.739511
83.136268,0.604707,-0.843537,-9.743552
83.169658,0.608448,-0.849972,-9.734872
83.202186,0.607550,-0.850421,-9.727390
83.236153,0.604408,-0.842639,-9.734723
83.269710,0.608598,-0.836504,-9.733675
83.302970,0.605455,-0.836205,-9.747742
83.336311,0.606353,-0.835457,-9.725594
83.369604,0.601714,-0.855359,-9.720955
83.402980,0.605455,-0.841293,-9.728887
83.436305,0.611591,-0.842340,-9.736668
83.469581,0.603211,-0.837701,-9.739362
83.502988,0.604109,-0.843687,-9.730832
83.535940,0.602014,-0.840844,-9.742504
83.569675,0.608748,-0.848326,-9.738913
83.602980,0.605455,-0.842340,-9.737715
83.636336,0.599619,-0.846530,-9.732179
83.669602,0.603360,-0.845483,-9.741606
83.703008,0.600816,-0.837701,-9.735471
83.736327,0.600218,-0.835307,-9.730832
83.769691,0.604109,-0.837552,-9.756271
83.802995,0.610244,-0.837252,-9.728138
83.836304,0.595280,-0.845333,-9.736668
83.869659,0.610394,-0.838599,-9.748939
83.902965,0.608448,-0.838300,-9.730533
83.936299,0.609196,-0.842041,-9.725445
83.969677,0.605455,-0.836654,-9.738015
84.003002,0.611441,-0.842939,-9.750734
84.036302,0.610394,-0.844884,-9.737416
84.069599,0.602911,-0.833511,-9.735471
84.102926,0.610394,-0.839497,-9.741457
84.136307,0.618175,-0.838001,-9.735022
84.169591,0.608897,-0.846231,-9.739511
84.202940,0.600966,-0.837402,-9.739661
84.236345,0.598273,-0.830219,-9.732927
84.269627,0.609645,-0.839497,-9.739810
84.302991,0.606353,-0.830069,-9.732628
84.336304,0.604707,-0.834858,-9.735471
84.369633,0.601565,-0.841891,-9.731580
84.403003,0.606952,-0.840395,-9.729934
84.436276,0.601714,-0.835606,-9.723050
84.469579,0.614733,-0.835756,-9.736967
84.502921,0.606952,-0.838300,-9.719160
84.536323,0.607550,-0.845333,-9.728438
84.569675,0.612339,-0.832015,-9.724697
84.603145,0.598721,-0.834708,-9.736369
84.636263,0.604258,-0.838300,-9.739810
84.669593,0.605904,-0.837552,-9.738913
84.703133,0.613536,-0.834559,-9.746245
84.736258,0.609496,-0.839647,-9.735471
84.769611,0.602463,-0.835157,-9.743552
84.803066,0.613386,-0.847129,-9.740409
84.836261,0.609945,-0.845782,-9.744898
84.869604,0.618474,-0.837851,-9.733974
84.903071,0.607850,-0.841891,-9.741307
84.936263,0.616230,-0.834110,-9.740409
84.969611,0.607999,-0.843238,-9.733825
85.003031,0.609645,-0.833810,-9.738314
85.036317,0.602163,-0.832613,-9.752530
85.069653,0.605605,-0.836205,-9.723050
85.103050,0.615332,-0.841592,-9.754924
85.136269,0.601864,-0.835008,-9.740110
85.169660,0.607101,-0.834259,-9.727540
85.203024,0.609645,-0.838300,-9.737715
85.236304,0.603211,-0.847428,-9.745347
85.269603,0.605006,-0.835606,-9.739810
85.302996,0.607700,-0.835157,-9.735022
85.335351,0.604707,-0.837402,-9.722153
85.369597,0.603211,-0.846381,-9.741157
85.402978,0.600218,-0.838898,-9.736668
85.436297,0.607101,-0.844884,-9.738913
85.469609,0.613237,-0.830967,-9.731131
85.502968,0.605605,-0.832464,-9.730233
85.536271,0.606952,-0.833362,-9.727689
85.569600,0.605156,-0.837552,-9.727839
85.602944,0.592586,-0.843388,-9.751782
85.636333,0.602313,-0.834110,-9.733525
85.669597,0.602313,-0.836205,-9.725894
85.702963,0.606653,-0.840096,-9.737715
85.736273,0.605306,-0.839497,-9.721105
85.769612,0.599320,-0.848326,-9.742803
85.802959,0.596776,-0.837552,-9.744300
85.836265,0.601415,-0.833960,-9.737117
85.869597,0.591987,-0.838599,-9.727839
85.902951,0.608299,-0.838749,-9.745347
85.936270,0.591239,-0.837552,-9.729635
85.969614,0.610094,-0.848027,-9.735920
86.003096,0.612040,-0.836354,-9.740110
86.036271,0.601864,-0.838898,-9.727689
86.069601,0.602313,-0.839497,-9.741457
86.103008,0.595729,-0.831566,-9.733077
86.136273,0.606353,-0.841442,-9.729934
86.169601,0.591987,-0.844734,-9.738913
86.203011,0.599619,-0.846979,-9.738015
86.236274,0.610843,-0.845183,-9.744000
86.269597,0.600368,-0.840993,-9.736219
86.303027,0.593933,-0.845782,-9.728737
86.336286,0.605605,-0.843837,-9.726043
86.369650,0.602313,-0.844286,-9.737566
86.402940,0.611142,-0.841143,-9.732927
86.436235,0.606802,-0.844734,-9.733825
86.469704,0.611591,-0.842340,-9.727540
86.503144,0.592436,-0.847278,-9.757169
86.536258,0.613087,-0.845782,-9.742803
86.569596,0.605006,-0.842939,-9.721404
86.603068,0.606802,-0.838150,-9.740259
86.636254,0.606653,-0.849224,-9.739212
86.669605,0.607401,-0.846231,-9.729485
86.703047,0.602911,-0.853713,-9.750585
86.736259,0.604258,-0.845034,-9.740409
86.769612,0.601864,-0.843837,-9.730233
86.802978,0.598572,-0.839946,-9.726343
86.836263,0.608149,-0.837851,-9.744150
86.869595,0.602163,-0.843986,-9.716317
86.902978,0.603809,-0.844286,-9.740559
86.936254,0.602463,-0.843986,-9.755373
86.969609,0.611591,-0.839647,-9.731281
87.002967,0.606503,-0.840245,-9.730533
87.036261,0.606054,-0.847877,-9.734573
87.069603,0.610094,-0.847877,-9.730084
87.103093,0.613386,-0.839497,-9.747143
87.136254,0.613237,-0.838001,-9.733376
87.169603,0.616828,-0.837701,-9.729934
87.203025,0.597075,-0.839946,-9.738464
87.236255,0.607850,-0.851768,-9.731730
87.269607,0.617576,-0.838898,-9.728288
87.302986,0.615930,-0.839647,-9.738913
87.336256,0.604258,-0.839946,-9.741606
87.369609,0.609645,-0.834858,-9.742205
87.403016,0.609496,-0.837252,-9.732628
87.436319,0.598123,-0.845183,-9.735770
87.469520,0.606054,-0.844286,-9.732029
87.502975,0.606653,-0.843986,-9.737715
87.536245,0.608598,-0.834858,-9.742803
87.569125,0.604857,-0.850870,-9.736668
87.602400,0.610992,-0.842639,-9.732927
87.636246,0.606503,-0.845034,-9.741756
87.668908,0.604857,-0.839946,-9.748639
87.702987,0.616379,-0.841891,-9.741157
87.736269,0.616978,-0.850870,-9.738164
87.769655,0.603061,-0.842939,-9.729934
87.802970,0.599919,-0.844435,-9.739810
87.836316,0.599170,-0.839946,-9.737416
87.869638,0.607850,-0.840096,-9.726792
87.903018,0.607700,-0.844435,-9.744300
87.936317,0.597375,-0.835008,-9.737566
87.969706,0.612189,-0.841891,-9.736219
88.002976,0.608448,-0.848326,-9.739511
88.036298,0.599919,-0.842490,-9.738164
88.069687,0.612189,-0.832164,-9.738613
88.103022,0.609047,-0.840096,-9.737267
88.136331,0.607999,-0.838599,-9.733525
88.169616,0.606353,-0.842041,-9.725295
88.202933,0.602014,-0.838749,-9.744000
88.236275,0.612489,-0.847278,-9.741457
88.269601,0.599021,-0.840245,-9.746544
88.302948,0.602313,-0.839198,-9.738164
88.336328,0.603061,-0.838001,-9.730682
88.369637,0.600517,-0.842939,-9.724098
88.402932,0.610543,-0.836803,-9.749388
88.436312,0.608299,-0.838599,-9.738164
88.469580,0.609645,-0.849822,-9.756570
88.502938,0.605455,-0.842340,-9.734124
88.536325,0.606054,-0.844286,-9.729036
88.569622,0.601265,-0.846680,-9.725295
88.602951,0.618175,-0.842939,-9.738464
88.636263,0.609047,-0.843088,-9.729186
88.669588,0.605904,-0.845034,-9.741457
88.702977,0.596477,-0.846231,-9.732478
88.736398,0.597375,-0.839946,-9.723948
88.769609,0.606353,-0.842191,-9.741457
88.802967,0.597524,-0.837851,-9.736668
88.836397,0.596177,-0.845183,-9.738913
88.869602,0.609795,-0.848027,-9.746993
88.903005,0.605306,-0.844435,-9.723200
88.936393,0.601565,-0.845034,-9.728138
88.969406,0.603510,-0.850421,-9.738464
89.003082,0.602313,-0.841143,-9.747592
89.036373,0.605306,-0.844286,-9.736668
89.069595,0.602911,-0.839497,-9.748340
89.103061,0.606054,-0.838749,-9.727540
89.136338,0.601714,-0.846530,-9.727091
89.169477,0.619223,-0.835307,-9.747293
89.202958,0.600667,-0.840844,-9.728438
89.236402,0.607700,-0.843088,-9.743701
89.269601,0.607850,-0.837103,-9.728587
89.302974,0.598422,-0.850571,-9.727689
89.336288,0.609196,-0.846231,-9.732179
89.369697,0.616230,-0.830219,-9.742953
89.403046,0.605306,-0.835157,-9.737865
89.436399,0.604408,-0.838749,-9.734872
89.469718,0.604857,-0.848775,-9.738164
89.502972,0.606503,-0.835606,-9.730233
89.536266,0.603211,-0.844286,-9.732777
89.569664,0.611142,-0.838449,-9.732478
89.603012,0.603660,-0.846530,-9.734423
89.636359,0.602313,-0.840544,-9.741307
89.669332,0.596327,-0.845034,-9.746095
89.702970,0.596177,-0.840844,-9.736818
89.736319,0.604558,-0.847428,-9.725744
89.769593,0.606653,-0.835606,-9.739511
89.803002,0.601415,-0.832613,-9.731430
89.836345,0.608598,-0.839198,-9.746844
89.869603,0.613835,-0.843537,-9.718561
89.902957,0.607999,-0.846680,-9.741457
89.936377,0.622814,-0.840245,-9.750884
89.969593,0.610244,-0.840395,-9.745796
90.003072,0.608748,-0.837552,-9.738015
90.036328,0.604109,-0.832464,-9.729934
90.069588,0.612339,-0.836354,-9.738763
90.103013,0.607251,-0.837552,-9.730832
90.136376,0.608149,-0.830069,-9.733525
90.169141,0.613835,-0.836953,-9.736069
90.203009,0.611291,-0.843238,-9.738314
90.236315,0.605904,-0.835157,-9.721853
90.269601,0.616679,-0.842789,-9.726792
90.303010,0.599021,-0.843088,-9.747592
90.336318,0.610543,-0.833511,-9.739810
90.369663,0.603809,-0.832763,-9.735321
90.403002,0.606653,-0.840694,-9.732628
90.436327,0.610543,-0.841442,-9.736219
90.469620,0.600966,-0.840694,-9.736668
90.503009,0.608598,-0.837103,-9.735920
90.536332,0.597375,-0.841592,-9.739362
90.569641,0.596327,-0.833511,-9.734872
90.602963,0.604558,-0.844585,-9.743552
90.636388,0.596626,-0.842490,-9.722901
90.669641,0.601265,-0.849523,-9.751932
90.702971,0.603360,-0.830668,-9.741157
90.736311,0.604857,-0.837701,-9.729036
90.769606,0.602014,-0.842490,-9.741157
90.803003,0.593334,-0.839048,-9.735920
90.836396,0.602163,-0.843687,-9.737267
90.869592,0.602014,-0.832314,-9.731580
90.903004,0.600368,-0.841742,-9.738913
90.936361,0.599320,-0.839647,-9.736219
90.969618,0.598422,-0.831267,-9.741008
91.003048,0.586002,-0.835756,-9.733226
91.036390,0.591090,-0.837103,-9.746544
91.069604,0.598871,-0.836803,-9.740708
91.102928,0.595130,-0.836354,-9.755822
91.136366,0.593484,-0.829770,-9.746694
91.169605,0.595579,-0.835756,-9.739362
91.202987,0.594681,-0.838599,-9.728587
91.236347,0.592885,-0.831865,-9.719609
91.269623,0.602463,-0.825430,-9.738763
91.302936,0.583757,-0.827077,-9.738763
91.336332,0.593484,-0.832314,-9.738613
91.369648,0.589444,-0.825430,-9.755523
91.402935,0.580615,-0.833661,-9.735920
91.436333,0.586600,-0.830369,-9.736069
91.469703,0.590790,-0.824533,-9.716317
91.502948,0.558019,-0.832464,-9.752380
91.536338,0.571636,-0.833960,-9.735920
91.569669,0.573581,-0.840993,-9.761808
91.602852,0.570140,-0.827974,-9.740409
91.636190,0.577921,-0.837402,-9.733974
91.669634,0.569840,-0.836953,-9.749687
91.702792,0.571786,-0.840245,-9.758965
91.736279,0.575976,-0.833062,-9.725145
91.769411,0.576125,-0.829620,-9.706889
91.802940,0.592137,-0.827525,-9.706739
91.836261,0.575377,-0.836654,-9.715419
91.869694,0.548591,-0.851917,-9.778568
91.902974,0.561011,-0.837103,-9.741905
91.936295,0.584805,-0.827675,-9.700005
91.969680,0.557570,-0.839497,-9.744300
92.003088,0.555624,-0.850271,-9.742654
92.036261,0.540361,-0.851019,-9.758815
92.069601,0.538266,-0.850720,-9.766746
92.103043,0.544251,-0.843388,-9.736219
92.136333,0.561161,-0.849523,-9.723649
92.169623,0.548292,-0.846381,-9.740559
92.202933,0.541707,-0.856706,-9.732628
92.236268,0.545299,-0.849972,-9.744000
92.269307,0.556372,-0.850571,-9.723948
92.302996,0.548890,-0.850271,-9.760012
92.336419,0.545598,-0.849972,-9.747592
92.369604,0.563555,-0.837402,-9.708385
92.402970,0.547693,-0.857304,-9.710032
92.436316,0.535273,-0.858651,-9.735321
92.469592,0.537517,-0.850421,-9.762407
92.502957,0.518363,-0.852516,-9.728138
92.536405,0.511031,-0.853863,-9.742504
92.569616,0.513724,-0.846829,-9.749986
92.602933,0.501603,-0.854611,-9.733226
92.636314,0.499059,-0.865236,-9.732179
92.669589,0.486040,-0.856856,-9.751333
92.702958,0.484394,-0.863440,-9.744898
92.736287,0.473620,-0.866582,-9.746245
92.769585,0.478708,-0.864487,-9.736818
92.802933,0.462995,-0.874962,-9.756271
92.836307,0.470627,-0.870323,-9.760461
92.869590,0.460900,-0.870473,-9.759114
92.902934,0.472872,-0.874962,-9.754625
92.936314,0.468532,-0.875860,-9.746095
92.969575,0.472273,-0.867630,-9.743252
93.002935,0.462846,-0.870174,-9.744449
93.036349,0.474368,-0.868528,-9.740858
93.069587,0.479306,-0.871221,-9.735172
93.102925,0.488135,-0.866882,-9.728587
93.136318,0.488285,-0.869575,-9.740559
93.169586,0.481850,-0.871820,-9.723350
93.202929,0.460900,-0.881098,-9.738464
93.236299,0.495468,-0.870772,-9.745946
93.269590,0.484694,-0.860297,-9.739661
93.302928,0.475565,-0.865684,-9.735172
93.336357,0.487836,-0.870024,-9.746993
93.369592,0.490679,-0.867929,-9.733376
93.402925,0.485292,-0.871670,-9.739212
93.436320,0.467185,-0.872718,-9.750884
93.469594,0.478558,-0.879003,-9.742055
93.502976,0.480504,-0.866433,-9.734423
93.536341,0.471824,-0.874064,-9.745048
93.569634,0.463295,-0.880499,-9.746544
93.602994,0.470777,-0.877955,-9.742504
93.636298,0.465689,-0.858651,-9.738613
93.669691,0.480803,-0.871969,-9.741905
93.702942,0.470328,-0.873616,-9.748340
93.736301,0.475565,-0.877955,-9.737117
93.769618,0.470777,-0.865984,-9.729335
93.802936,0.480354,-0.876010,-9.744898
93.836296,0.477361,-0.865984,-9.752530
93.869637,0.477062,-0.867779,-9.744898
93.902935,0.471824,-0.881996,-9.747442
93.936312,0.469430,-0.874962,-9.739212
93.969628,0.473470,-0.875411,-9.746844
94.002973,0.487237,-0.874364,-9.731730
94.036270,0.476613,-0.880200,-9.746095
94.069589,0.476164,-0.871072,-9.733525
94.102945,0.477660,-0.878404,-9.736069
94.136190,0.485591,-0.867331,-9.730233
94.169596,0.474218,-0.875711,-9.750585
94.202793,0.475266,-0.875262,-9.748190
94.236324,0.476912,-0.875112,-9.743103
94.269589,0.480354,-0.878254,-9.739362
94.302972,0.480653,-0.875711,-9.744599
94.336274,0.480653,-0.869575,-9.737566
94.369676,0.477361,-0.871221,-9.741457
94.402936,0.485891,-0.873616,-9.728887
94.436266,0.480803,-0.875860,-9.731580
94.469651,0.486489,-0.873616,-9.740259
94.502927,0.477211,-0.865236,-9.750285
94.536312,0.475416,-0.887083,-9.736518
94.569683,0.481551,-0.872119,-9.737267
94.602978,0.469131,-0.877207,-9.746095
94.636299,0.472273,-0.876010,-9.744599
94.669627,0.487986,-0.878554,-9.749687
94.702998,0.470028,-0.876758,-9.736219
94.736363,0.477211,-0.886485,-9.734124
94.769585,0.475565,-0.868827,-9.742354
94.802950,0.478259,-0.872568,-9.732478
94.836391,0.471525,-0.876758,-9.755822
94.869588,0.455962,-0.889777,-9.739960
94.903000,0.481701,-0.882145,-9.732179
94.936350,0.469729,-0.871670,-9.734423
94.969589,0.480653,-0.878554,-9.743552
95.002990,0.491427,-0.866133,-9.747442
95.036318,0.473770,-0.873167,-9.727240
95.069593,0.473021,-0.879601,-9.742654
95.102931,0.474518,-0.872867,-9.747442
95.136367,0.485891,-0.870922,-9.734423
95.169591,0.484544,-0.873616,-9.741157
95.202933,0.472273,-0.877656,-9.758516
95.235911,0.469280,-0.886036,-9.750734
95.269591,0.478409,-0.876159,-9.737865
95.302929,0.487387,-0.880349,-9.735321
95.336383,0.458805,-0.876608,-9.762107
95.369645,0.474368,-0.873466,-9.750585
95.403038,0.477361,-0.870024,-9.740559
95.436293,0.478857,-0.881098,-9.758665
95.469593,0.487537,-0.872119,-9.704794
95.502989,0.462397,-0.897259,-9.752829
95.536325,0.467335,-0.878554,-9.780513
95.569618,0.475715,-0.859549,-9.758217
95.602997,0.473770,-0.870174,-9.779017
95.636304,0.474667,-0.874663,-9.742504
95.669595,0.485142,-0.860297,-9.786649
95.702940,0.499807,-0.874962,-9.764502
95.736293,0.515819,-0.857903,-9.742803
95.769491,0.545449,-0.861046,-9.729784
95.802781,0.552332,-0.852965,-9.737117
95.836307,0.574928,-0.859998,-9.686388
95.869328,0.601714,-0.852516,-9.708535
95.902956,0.579417,-0.853863,-9.702699
95.935979,0.603959,-0.849822,-9.721404
95.969617,0.607850,-0.855808,-9.662445
96.003000,0.586151,-0.859399,-9.711977
96.035557,0.572384,-0.865086,-9.770787
96.069589,0.589743,-0.849373,-9.751183
96.103004,0.575377,-0.866433,-9.746993
96.136344,0.577921,-0.858951,-9.743552
96.169591,0.572833,-0.862392,-9.728737
96.202933,0.571636,-0.865236,-9.767345
96.236351,0.587049,-0.858651,-9.751632
96.269651,0.594232,-0.850122,-9.737267
96.302970,0.586451,-0.847877,-9.750285
96.335566,0.593933,-0.858951,-9.732029
96.369625,0.595280,-0.851319,-9.732478
96.403007,0.614883,-0.850122,-9.742504
96.436022,0.616379,-0.844286,-9.736369
96.469116,0.622964,-0.847877,-9.740708
96.502969,0.629698,-0.833960,-9.719609
96.536293,0.633738,-0.837851,-9.730533
96.569709,0.646757,-0.840694,-9.738314
96.603005,0.650049,-0.830818,-9.727390
96.636393,0.651096,-0.831715,-9.713324
96.669584,0.643914,-0.834858,-9.734423
96.702994,0.650348,-0.827226,-9.726193
96.736350,0.657381,-0.821989,-9.724996
96.769592,0.649301,-0.833810,-9.727390
96.802987,0.651396,-0.827376,-9.720656
96.836342,0.651096,-0.838300,-9.727989
96.869594,0.648104,-0.827974,-9.738164
96.902958,0.663816,-0.828573,-9.733825
96.936378,0.653042,-0.829920,-9.719609
96.969671,0.647056,-0.832015,-9.733825
97.003058,0.641370,-0.838749,-9.740409
97.036276,0.644363,-0.839796,-9.742504
97.069588,0.645111,-0.835307,-9.746694
97.103018,0.652294,-0.838749,-9.717514
97.136357,0.643465,-0.839347,-9.735022
97.169641,0.637329,-0.836953,-9.740858
97.202960,0.642417,-0.845632,-9.725744
97.236297,0.639424,-0.841891,-9.744449
97.269631,0.645560,-0.845782,-9.741157
97.302931,0.645410,-0.833511,-9.721404
97.336299,0.647804,-0.839497,-9.721404
97.369628,0.640322,-0.830219,-9.740259
97.402970,0.642866,-0.830668,-9.742055
97.436288,0.650049,-0.839198,-9.733376
97.469591,0.644811,-0.841891,-9.735172
97.502956,0.642417,-0.842939,-9.727390
97.536358,0.644213,-0.838898,-9.742654
97.569628,0.650199,-0.838449,-9.729635
97.602966,0.653341,-0.832314,-9.729186
97.636278,0.645709,-0.840245,-9.738314
97.669593,0.650498,-0.834858,-9.717663
97.703001,0.651545,-0.845034,-9.720507
97.736120,0.643614,-0.851319,-9.725445
97.769665,0.644213,-0.838449,-9.739062
97.802867,0.644213,-0.841742,-9.736518
97.836309,0.644512,-0.839647,-9.735620
97.869595,0.635683,-0.846979,-9.742953
97.902976,0.633289,-0.849373,-9.730982
97.936274,0.635534,-0.850720,-9.746544
97.969625,0.649301,-0.839647,-9.732478
98.002970,0.643315,-0.837701,-9.736369
98.036302,0.636431,-0.836055,-9.732029
98.069602,0.645410,-0.836803,-9.726941
98.103000,0.644363,-0.842191,-9.732328
98.136382,0.652443,-0.841891,-9.722452
98.169594,0.647206,-0.839796,-9.735620
98.202962,0.647954,-0.829920,-9.739212
98.236379,0.644213,-0.844136,-9.740110
98.269663,0.643315,-0.839198,-9.724098
98.303037,0.647056,-0.843837,-9.747592
98.336277,0.657830,-0.841293,-9.724397
98.369632,0.655436,-0.858502,-9.731281
98.403051,0.647655,-0.848176,-9.740409
98.436271,0.639424,-0.837701,-9.730533
98.469577,0.635085,-0.845034,-9.696115
98.503062,0.626106,-0.845932,-9.761359
98.536274,0.632241,-0.859848,-9.744898
98.569623,0.646158,-0.859100,-9.732179
98.602945,0.636880,-0.855209,-9.728737
98.636314,0.634935,-0.863589,-9.698509
98.669648,0.634935,-0.868677,-9.719309
98.702978,0.631493,-0.855658,-9.738613
98.736329,0.624460,-0.846829,-9.736668
98.769624,0.614584,-0.849523,-9.754475
98.803005,0.615930,-0.858202,-9.738015
98.836315,0.622365,-0.856706,-9.742205
98.869620,0.622215,-0.864936,-9.746095
98.902977,0.631194,-0.853863,-9.732328
98.936384,0.631793,-0.859549,-9.714670
98.969631,0.626106,-0.853114,-9.730682
99.002989,0.625657,-0.853563,-9.728138
99.036350,0.629698,-0.849822,-9.741457
99.069593,0.627902,-0.864038,-9.742055
99.102928,0.625208,-0.840544,-9.746694
99.136365,0.616379,-0.851917,-9.733077
99.169623,0.616828,-0.852366,-9.739960
99.203040,0.628201,-0.859399,-9.720507
99.236298,0.623562,-0.845782,-9.730682
99.269613,0.623712,-0.854910,-9.744300
99.303010,0.619372,-0.856107,-9.744449
99.336342,0.626405,-0.850122,-9.734573
99.369614,0.631942,-0.842789,-9.726343
99.402990,0.626106,-0.848476,-9.725744
99.436376,0.623263,-0.854012,-9.734274
99.469587,0.628800,-0.848027,-9.755074
99.502935,0.637778,-0.848176,-9.726343
99.536363,0.633289,-0.849224,-9.732478
99.569608,0.630895,-0.852217,-9.726941
99.602989,0.630446,-0.846680,-9.732029
99.636314,0.636581,-0.843687,-9.727390
99.669698,0.628201,-0.851917,-9.735620
99.702973,0.637928,-0.845333,-9.745647
99.736274,0.635683,-0.851319,-9.739810
99.769637,0.622365,-0.856407,-9.741905
99.802968,0.622066,-0.850421,-9.737117
99.836353,0.627603,-0.856257,-9.734423
99.869602,0.625657,-0.851768,-9.728587
99.902942,0.621916,-0.866882,-9.748190
99.936329,0.630595,-0.846081,-9.744599
99.969615,0.621168,-0.844435,-9.722003
100.002881,0.616978,-0.852666,-9.738164
100.036289,0.625657,-0.859399,-9.745497
100.069175,0.627453,-0.853114,-9.732029
100.102375,0.633588,-0.845483,-9.723050
100.135754,0.631044,-0.854761,-9.726343
100.169612,0.609496,-0.864787,-9.746544
100.202927,0.620270,-0.861494,-9.744599
100.236290,0.630895,-0.846530,-9.737117
100.270021,0.635384,-0.844286,-9.735920
100.302930,0.629249,-0.844734,-9.740259
100.336288,0.632092,-0.853264,-9.735620
100.369904,0.644213,-0.849523,-9.744599
100.402930,0.639424,-0.859848,-9.732029
100.436293,0.627902,-0.853264,-9.729934
100.469961,0.643165,-0.849224,-9.718561
100.502536,0.657082,-0.844585,-9.717214
100.536247,0.654688,-0.841742,-9.729784
100.569881,0.656035,-0.847428,-9.738613
100.602561,0.656783,-0.844136,-9.735321
100.636320,0.647954,-0.841742,-9.739362
100.669677,0.646757,-0.840395,-9.734573
100.702958,0.661272,-0.834259,-9.722901
100.736312,0.641370,-0.837552,-9.708385
100.769600,0.637778,-0.868677,-9.767345
100.802950,0.654538,-0.849074,-9.741606
100.836379,0.651246,-0.841442,-9.709882
100.869718,0.627453,-0.860297,-9.731131
100.902943,0.639424,-0.860597,-9.735770
100.936365,0.654987,-0.852067,-9.727240
100.969711,0.627752,-0.850870,-9.735920
101.002995,0.639125,-0.859100,-9.735920
101.036338,0.651396,-0.834409,-9.750734
101.069703,0.639275,-0.848924,-9.712725
101.102431,0.638377,-0.861644,-9.723200
101.136314,0.657082,-0.844585,-9.718262
101.169652,0.619223,-0.861943,-9.708834
101.202327,0.562358,-0.883193,-9.855484
101.236283,0.645111,-0.857005,-9.715868
101.269675,0.664265,-0.838001,-9.656609
101.302984,0.606952,-0.878404,-9.763753
101.336367,0.602911,-0.875561,-9.792634
101.369658,0.632391,-0.856856,-9.714670
101.403005,0.637629,-0.858651,-9.706889
101.436324,0.623712,-0.861195,-9.742055
101.469602,0.605455,-0.872269,-9.744150
101.502995,0.618923,-0.863589,-9.736818
101.536306,0.619821,-0.862392,-9.732478
101.569646,0.617427,-0.858801,-9.747442
101.602984,0.610244,-0.865984,-9.746993
101.636279,0.622664,-0.859998,-9.736668
101.669606,0.623861,-0.858651,-9.731730
101.702079,0.614883,-0.873915,-9.738613
101.736405,0.613985,-0.861794,-9.746395
101.769603,0.615332,-0.855060,-9.747592
101.802982,0.621766,-0.871221,-9.729186
101.836323,0.613386,-0.873167,-9.729635
101.869647,0.612489,-0.857005,-9.737715
101.902997,0.602612,-0.862093,-9.742055
101.936365,0.623712,-0.862692,-9.743402
101.969598,0.616529,-0.848625,-9.715119
102.003058,0.623712,-0.857903,-9.742205
102.036326,0.604558,-0.868228,-9.756870
102.069607,0.613536,-0.857304,-9.725295
102.102989,0.610992,-0.861494,-9.739062
102.136363,0.619073,-0.856107,-9.731879
102.169610,0.614434,-0.868977,-9.734124
102.202066,0.605904,-0.862991,-9.733525
102.236323,0.614284,-0.872119,-9.738464
102.269599,0.613985,-0.855209,-9.725594
102.302226,0.614434,-0.858502,-9.720656
102.336339,0.620569,-0.866732,-9.736818
102.369651,0.609795,-0.869874,-9.743402
102.402989,0.616978,-0.854910,-9.731730
102.436347,0.611291,-0.865535,-9.740110
102.469650,0.619971,-0.862243,-9.735920
102.502972,0.613985,-0.867779,-9.729335
102.536285,0.617876,-0.872418,-9.749537
102.569553,0.623562,-0.858502,-9.734274
102.602797,0.619971,-0.852666,-9.734573
102.636304,0.609645,-0.862093,-9.730084
102.669371,0.615631,-0.851019,-9.728438
