time_tick,gyr_X_value,gyr_Y_value,gyr_Z_value
0.007041,-0.021113,0.007890,-0.037630
0.037032,0.022967,0.127752,-0.021634
0.067024,-0.035849,0.142905,0.024987
0.107013,-0.033380,0.004431,0.024784
0.137005,-0.016565,0.007221,0.018269
0.166996,-0.037924,0.012273,0.012835
0.206985,-0.034316,0.004720,0.009293
0.236982,-0.033475,0.013271,0.010456
0.266974,-0.070442,0.014199,-0.004155
0.306963,-0.128297,0.027674,0.006361
0.336954,-0.067272,0.107312,-0.000516
0.366946,-0.083709,0.065249,0.033981
0.406935,-0.013268,0.047350,0.001230
0.436927,0.118904,0.058414,-0.079077
0.466918,0.218824,-0.001388,-0.059607
0.506907,0.216092,-0.078780,-0.070816
0.536899,0.161229,-0.104065,-0.057902
0.566891,0.099385,-0.092079,-0.029811
0.606880,0.091098,-0.050583,0.098950
0.636871,0.098999,-0.028795,0.090271
0.666863,0.002151,-0.010074,0.012201
0.706852,0.006544,-0.012191,-0.014226
0.736844,-0.016313,-0.013304,0.005277
0.766836,0.040033,0.004650,0.035994
0.806824,0.117829,0.077145,0.089240
0.836816,0.024130,0.113077,0.049602
0.866808,-0.058815,0.097683,0.028434
0.906797,-0.078484,-0.013491,-0.001227
0.936788,0.007699,-0.086838,-0.006173
0.966780,0.030464,-0.089851,-0.014005
1.006769,0.100772,-0.098690,0.063636
1.036761,0.098860,0.099463,0.110589
1.066753,-0.087449,0.247344,0.120361
1.106741,-0.200357,-0.009129,0.062720
1.136733,-0.068084,-0.143853,0.020360
1.166725,0.101894,-0.087084,0.000358
1.206714,0.094559,-0.012169,-0.009685
1.236702,-0.007500,-0.040383,-0.019666
1.266693,-0.065457,-0.067878,-0.016542
1.306682,-0.008204,-0.080243,-0.033221
1.336674,-0.082629,-0.041313,-0.058027
1.366666,-0.108356,-0.017365,-0.122743
1.406655,-0.165080,-0.054090,-0.192188
1.436646,-0.101147,-0.012937,-0.169266
1.466638,-0.004377,0.049173,-0.090373
1.506627,-0.000976,0.018604,0.012102
1.536619,0.004102,-0.035747,0.047346
1.566610,0.010271,-0.070568,0.055821
1.606599,0.016379,-0.048093,0.041041
1.636591,-0.012128,0.030853,0.013253
1.666583,-0.033870,0.099889,-0.012526
1.706572,-0.014093,0.063337,-0.034367
1.736563,0.024273,0.013758,-0.008688
1.766555,0.082923,-0.000171,0.015185
1.806544,0.071244,0.021705,0.034173
1.836536,0.031903,0.041187,0.038155
1.866527,-0.012565,0.046786,0.005440
1.906516,0.013358,0.051254,-0.032441
1.936508,0.109584,0.042195,-0.020284
1.966500,0.025033,0.007531,-0.017606
2.006489,-0.006708,0.003298,-0.002142
2.036480,0.027093,0.073098,0.053072
2.066472,-0.019611,0.083310,0.056528
2.106461,-0.002486,0.008947,0.054221
2.136453,0.044883,-0.005607,0.066144
2.166444,0.040713,0.026337,0.058808
2.206433,0.036690,0.030319,0.022776
2.236424,0.050624,0.040090,0.024705
2.266416,0.028687,0.044866,0.030174
2.306405,-0.006158,0.051731,0.001339
2.336396,0.035531,0.046650,-0.026217
2.366388,0.015467,0.037107,-0.044579
2.406377,-0.047855,0.022297,-0.058557
2.436369,-0.017375,0.028306,-0.037554
2.466361,0.030077,0.023748,-0.012317
2.506350,0.055523,-0.044935,0.014595
2.536341,0.023725,-0.060244,0.010150
2.566333,0.039558,-0.037017,0.024039
2.606322,0.026492,-0.044695,0.022199
2.636314,-0.015414,-0.032814,0.007335
2.666305,0.018644,-0.004951,0.009218
2.706294,0.041881,-0.020617,-0.003958
2.736286,0.003714,-0.033531,0.000509
2.766278,0.016304,-0.039077,0.003556
2.806267,0.010042,-0.020510,0.012247
2.836258,0.024342,-0.015592,0.018052
2.866250,0.019500,-0.034474,0.012989
2.906239,0.004219,-0.025768,0.029366
2.936231,-0.016375,-0.013786,0.027691
2.966222,-0.000761,-0.018037,0.009316
3.006211,-0.005210,-0.025301,-0.002944
3.036203,0.024121,-0.012598,-0.011208
3.066195,-0.009249,0.017091,-0.020135
3.106184,-0.007671,0.000281,0.012830
3.136175,0.037065,-0.022433,0.043210
3.166167,0.079141,-0.027532,0.043079
3.206156,0.035948,-0.020607,0.020559
3.236149,0.009664,0.002685,0.010661
3.266140,0.019461,0.022924,0.007918
3.306129,0.020558,-0.008502,0.009198
3.336121,0.031971,-0.003405,0.022031
3.366113,0.012864,0.015684,0.021585
3.406102,-0.006114,0.009756,0.026018
3.436093,-0.002952,0.008625,0.022280
3.466085,0.030499,0.001724,0.019423
3.506074,0.026102,0.022559,0.003455
3.536066,0.035621,0.064451,0.004845
3.566057,0.040277,0.078429,-0.008464
3.606046,-0.038616,0.003967,-0.024969
3.636038,-0.038202,-0.039759,-0.012721
3.666030,0.012067,-0.026524,0.014640
3.706019,0.014288,-0.007504,0.057814
3.736010,-0.003639,-0.015249,0.056756
3.766002,-0.013210,-0.018221,0.039062
3.805991,0.011837,0.000720,0.000032
3.835983,0.053881,0.031798,-0.017119
3.865974,0.035137,0.046140,-0.008925
3.905963,-0.038821,0.019933,0.000801
3.935955,-0.041773,-0.009424,0.027731
3.977196,-0.002155,-0.032126,0.052118
4.017185,-0.013353,-0.041676,0.031112
4.047177,0.024101,-0.030689,0.001662
4.077168,0.028974,-0.013660,-0.022577
4.117157,0.055970,0.029982,-0.045978
4.147149,0.064686,0.034975,-0.043433
4.177141,0.071014,0.025449,-0.013430
4.217130,0.013255,0.005599,0.013175
4.247121,0.055010,-0.010550,0.049487
4.277113,0.063786,-0.024115,0.060748
4.317102,0.008625,-0.009957,0.031183
4.347094,0.024290,0.026162,0.018166
4.377085,0.010731,0.038016,-0.004418
4.417074,0.013226,0.049825,0.000778
4.447066,-0.003642,0.034120,0.036706
4.477058,0.014942,-0.006187,0.032203
4.517046,0.045761,-0.044685,0.034523
4.537040,0.020460,-0.045352,0.029200
4.577029,0.011872,0.006674,0.013990
4.607020,0.054325,-0.014314,0.019635
4.637012,0.054771,-0.040045,0.019343
4.677001,0.007796,-0.039424,0.032797
4.706993,0.010171,-0.017990,0.028911
4.736985,0.004091,-0.009256,0.012397
4.776973,-0.010412,-0.016807,-0.010288
4.806965,-0.003826,0.011305,-0.020655
4.836957,0.010480,0.007745,-0.030307
4.876946,0.020508,-0.026559,-0.002810
4.906937,0.017655,-0.016385,0.016732
4.936929,0.032097,-0.016639,0.027097
4.976918,0.012521,-0.008453,0.001115
5.006910,0.046001,0.002682,-0.027394
5.046899,0.035533,0.021835,-0.043782
5.076890,-0.002269,-0.004349,-0.033959
5.106882,-0.035331,-0.007110,-0.011508
5.146871,0.054558,-0.030387,0.073843
5.176863,0.043035,-0.055462,0.087040
5.206854,0.013275,-0.035443,0.067878
5.246843,-0.030813,0.017463,0.030295
5.276835,-0.019272,0.023531,0.008856
5.306827,0.014350,0.016492,0.000679
5.346816,0.031985,0.018156,-0.001632
5.376807,-0.003579,0.013555,0.001693
5.406799,-0.003552,0.019409,0.004925
5.446788,0.013500,0.021175,-0.000499
5.476780,0.008757,0.008161,0.004728
5.506771,-0.001240,-0.003357,-0.002791
5.546760,0.004525,0.006098,-0.022887
5.576752,0.021550,0.015431,-0.020930
5.606744,0.008289,0.007860,-0.008706
5.646733,0.000376,0.011216,0.017251
5.676724,-0.023338,0.016608,0.023902
5.706716,-0.024391,0.001374,0.026443
5.746705,0.016358,-0.010599,0.024803
5.776697,0.037312,-0.012804,0.013086
5.806688,0.027018,-0.025234,0.004951
5.846677,0.016388,-0.014086,-0.021054
5.876669,0.022893,-0.006897,-0.036426
5.906661,0.028963,-0.009762,-0.037929
5.946650,0.027820,-0.016928,-0.014820
5.976641,0.018741,-0.016042,-0.002196
6.006633,0.002845,-0.023775,0.028236
6.046622,0.031069,-0.032388,0.024218
6.076614,0.008741,-0.040735,0.011923
6.106605,0.020475,-0.025383,-0.005141
6.146594,0.006001,0.020696,-0.006446
6.176586,-0.013333,0.018502,-0.001878
6.206578,-0.030786,-0.004051,0.003672
6.246565,0.014027,-0.005439,0.034772
6.276557,0.028533,-0.021555,0.027945
6.306549,0.014307,-0.030908,0.006376
6.346538,0.010347,-0.007313,-0.007991
6.376530,0.017306,-0.000807,-0.009525
6.406521,0.032954,-0.009860,0.016428
6.446510,-0.022860,-0.019686,0.007154
6.476502,0.007008,-0.001296,0.036681
6.506494,0.001966,-0.009993,0.042265
6.546482,-0.034848,-0.013353,0.022203
6.576474,-0.001010,0.005864,0.020438
6.606466,0.019284,-0.003620,0.031632
6.646455,0.008553,-0.014626,0.027900
6.676446,0.035097,-0.008015,0.018123
6.706438,0.035375,-0.000710,0.026509
6.746427,0.015492,0.009207,0.005575
6.776419,-0.011133,0.014757,0.001624
6.806410,0.006162,0.000629,-0.013505
6.846399,0.015228,-0.016480,0.003928
6.876391,0.025574,-0.011727,-0.003613
6.906383,0.040657,-0.009382,-0.012990
6.946372,0.029774,0.006427,0.002569
6.976363,0.000976,0.009619,0.007988
7.006355,0.008070,-0.016606,0.018984
7.046344,-0.008359,-0.037772,0.032219
7.076336,-0.010513,-0.022876,0.012967
7.106327,0.000252,-0.002084,0.010272
7.146316,0.001287,0.003760,0.006768
7.176308,0.003027,-0.009864,0.001042
7.206300,0.010743,-0.006338,0.004487
7.246290,0.007299,-0.002878,0.001616
7.276281,0.015577,0.002758,-0.002355
7.306273,0.019299,0.011681,-0.001156
7.346262,0.025258,-0.002863,0.004643
7.376254,-0.017846,0.001436,0.008063
7.406245,-0.025646,0.005687,0.013098
7.446234,0.009533,-0.026603,-0.005450
7.476226,0.047512,-0.031898,-0.004114
7.506218,0.051642,-0.009044,-0.009977
7.546207,0.013081,-0.002385,-0.007341
7.576198,-0.017572,-0.018544,-0.003049
7.606190,0.001261,-0.007456,-0.000171
7.646179,0.031878,0.001639,0.007872
7.676170,0.021723,0.001307,0.014182
7.706162,0.002700,-0.001999,0.024150
7.746151,-0.016814,-0.001694,0.033304
7.776143,-0.019372,-0.004397,0.020475
7.806134,0.009582,0.000694,-0.004616
7.846123,0.042852,0.024490,-0.014821
7.876115,0.019645,0.037999,-0.004158
7.906107,-0.002623,0.029205,0.008088
7.946096,-0.009758,0.018704,0.032176
7.977338,-0.002846,-0.002384,0.044143
8.017327,0.017365,0.002334,0.041124
8.047319,0.009413,0.010283,0.026092
8.077310,0.014823,0.008983,0.000546
8.117299,0.011133,0.012737,-0.012633
8.147291,0.019687,0.012517,-0.006764
8.177283,0.031391,0.001631,0.004306
8.217272,0.035268,-0.005336,0.023373
8.247262,0.008907,0.002326,0.024966
8.277254,-0.007306,0.009550,0.019137
8.317243,0.022723,0.011464,0.013741
8.347234,0.023562,0.010576,0.006606
8.377226,0.034684,0.003792,0.001050
8.417215,0.011439,0.005582,0.013438
8.447207,0.008101,0.025274,0.016430
8.477198,-0.004561,0.013091,0.014893
8.517187,0.021439,-0.010060,0.018521
8.537180,0.017276,-0.005520,0.016654
8.577169,-0.001471,0.013287,0.008148
8.607161,0.004316,0.013646,0.010198
8.637153,-0.003254,0.007200,0.005881
8.677142,0.022371,0.002625,0.000668
8.707133,0.008040,-0.002178,0.003920
8.737125,0.004604,-0.002251,0.019924
8.777114,-0.003019,-0.002064,0.026986
8.807106,-0.011659,-0.005220,0.018367
8.837097,0.015590,0.001124,0.008662
8.877086,-0.001247,0.017276,-0.002385
8.907078,0.015627,0.010900,-0.011122
8.937070,0.006897,0.004235,-0.007492
8.977058,0.013429,-0.007275,0.010568
9.007050,-0.002266,-0.009317,0.020366
9.037042,-0.012230,-0.000078,0.031030
9.077031,-0.026457,0.001938,0.021120
9.107022,0.015596,0.010879,0.014577
9.137014,0.003263,0.002201,0.005183
9.177003,-0.019705,0.007948,-0.002965
9.206995,0.006848,0.018747,0.006515
9.236987,0.014591,0.000220,0.013764
9.276976,0.017887,-0.008359,0.011400
9.306968,-0.003551,0.004015,0.009297
9.336960,0.004147,0.019455,0.013817
9.376949,0.016822,0.010732,0.012378
9.406940,0.001594,-0.013700,0.012530
9.436932,-0.006332,-0.001598,0.010128
9.476921,0.028594,0.008809,0.005732
9.506912,0.032071,-0.004071,0.005435
9.536904,0.033161,-0.010275,0.014658
9.576893,0.014018,0.000789,0.012691
9.606885,0.014010,0.005312,0.008035
9.636876,0.003033,0.000817,0.001100
9.676865,0.020468,0.007946,0.003395
9.706857,0.020133,0.008292,0.009035
9.736849,-0.001077,0.004442,0.015967
9.776838,0.005296,0.003753,0.010880
9.806829,0.009966,0.002105,0.007353
9.836821,0.022336,-0.004112,0.003336
9.876810,0.017872,0.003020,-0.000613
9.906801,0.002820,0.009534,-0.003169
9.936793,0.007250,0.009322,0.006249
9.976782,-0.018920,-0.001328,0.007634
10.006774,0.032785,-0.006697,0.003219
10.036765,0.039403,-0.003225,-0.002884
10.076754,0.010677,0.011176,-0.001270
10.106746,-0.004710,0.014712,-0.007911
10.136738,0.003750,0.016781,0.006401
10.176726,0.035704,0.010258,0.017172
10.206718,0.000413,0.002296,0.002355
10.236709,-0.035576,0.011794,-0.013708
10.276698,0.011729,0.015439,-0.001544
10.306689,0.023848,-0.010497,-0.008503
10.336681,0.029222,-0.022807,-0.008031
10.376670,-0.002744,-0.006045,0.003459
10.406662,-0.001221,0.002882,0.014156
10.436653,0.015765,-0.002846,0.014045
10.476642,0.024830,0.005216,0.019055
10.506634,-0.010763,0.000442,0.014483
10.536626,-0.012847,0.020558,0.014118
10.576614,0.008690,0.017973,0.017151
10.606606,0.002175,-0.011979,0.014088
10.636598,0.003925,-0.008979,0.021228
10.676587,-0.018654,0.019553,0.014472
10.706578,0.010044,0.001335,0.008890
10.736570,0.011712,-0.011371,0.001562
10.776559,0.023494,0.005908,0.003472
10.806551,0.008740,0.005549,0.001774
10.836542,0.016766,0.004928,0.010351
10.876531,0.025635,0.002056,0.007676
10.906523,0.007625,-0.002739,0.010509
10.936515,0.010677,0.003180,0.008248
10.976503,0.018507,0.004263,0.001842
11.006495,0.029784,0.006964,-0.001853
11.036487,0.022172,0.010289,0.002607
11.076476,0.017425,0.018030,0.013402
11.106467,0.017570,0.021451,0.031482
11.136459,-0.002582,0.013365,0.039946
11.176448,-0.003069,0.012748,0.026393
11.206440,0.010555,0.020130,0.012985
11.236432,0.023375,0.006400,0.002315
11.276421,0.007574,0.004630,-0.006378
11.306413,-0.010642,0.013398,0.009058
11.336404,-0.002558,0.010162,0.019781
11.376393,-0.011055,-0.014444,0.021035
11.406385,0.004400,-0.017248,0.032226
11.436377,0.042783,-0.007938,0.022282
11.476366,0.015962,-0.004363,-0.003246
11.506357,-0.001171,0.004015,-0.006942
11.536349,0.009529,0.010756,0.004248
11.576338,0.002043,0.000010,0.026897
11.606329,0.031072,-0.018604,0.035614
11.636321,0.027865,-0.005389,0.023396
11.676310,-0.004730,0.010313,-0.005923
11.706302,-0.001213,0.025163,-0.022772
11.736293,0.027176,0.026166,-0.008412
11.776282,0.014815,-0.002319,0.006805
11.806274,0.007514,-0.013378,0.015912
11.836266,-0.011778,0.004498,0.015460
11.876255,-0.020501,0.004311,0.003650
11.906246,-0.005291,0.000672,0.001728
11.936238,0.015749,0.008953,0.003860
11.977478,0.013120,0.004495,0.007266
12.007469,0.013743,-0.001516,0.008760
12.047458,0.036411,0.003103,0.010736
12.077450,0.019261,0.001330,0.005706
12.117439,-0.002603,0.006736,0.001415
12.147431,0.035058,0.007008,0.015381
12.177422,0.031139,-0.003878,0.013304
12.217411,0.028091,-0.007143,0.007134
12.247403,-0.005083,0.015754,0.007479
12.277394,0.010644,0.015927,0.014935
12.317383,0.012892,-0.001899,0.007495
12.347375,0.009937,0.005822,0.014922
12.377367,0.026942,0.009420,0.015317
12.417356,0.008612,0.001929,0.016298
12.447347,0.000185,-0.000960,0.011265
12.477339,0.022810,0.005882,0.004343
12.517328,0.014182,0.000547,0.004978
12.537320,0.023238,-0.004928,0.002216
12.567312,-0.001295,0.002127,0.001478
12.607300,0.010996,0.005772,0.009625
12.637292,0.013096,-0.008758,0.021644
12.667284,0.009702,-0.004563,0.022118
12.707273,-0.007558,0.004773,0.003447
12.737264,0.027883,0.006318,0.003801
12.767256,0.014593,0.002626,0.003987
12.807245,0.006816,0.000883,0.013319
12.837237,0.010950,-0.004392,0.020900
12.867228,0.009782,-0.013381,0.013632
12.907217,0.019329,-0.006149,0.004559
12.937209,0.020335,-0.011298,-0.008750
12.967201,0.029679,-0.002773,-0.001716
13.007189,0.001672,0.002190,0.003506
13.037181,0.007060,-0.010275,0.002418
13.067173,0.016406,-0.010635,0.014582
13.107162,0.026298,-0.010847,0.009576
13.137153,0.030287,-0.011463,0.007288
13.167145,0.003891,0.000398,0.004543
13.207134,0.003326,0.006926,-0.003392
13.237125,0.015134,0.002793,0.004630
13.267116,0.033662,-0.017142,0.018903
13.307105,0.016926,-0.018319,0.015554
13.337097,0.016307,0.000138,0.011704
13.367089,-0.002552,0.010469,0.014317
13.407077,0.010842,-0.012410,0.009363
13.437069,0.002043,-0.016437,0.003575
13.467061,0.026107,-0.020745,0.006888
13.507050,0.052661,-0.020887,0.006833
13.537041,0.045626,-0.010616,0.004675
13.567033,0.007297,0.003839,-0.016867
13.607022,0.030224,0.043781,-0.019460
13.637014,0.029227,0.030568,0.006924
13.667005,-0.010236,-0.017573,0.058463
13.706994,-0.027668,-0.004693,0.083383
13.736986,-0.030283,0.026680,0.065106
13.766978,0.007467,0.035708,0.032289
13.806966,0.010968,0.025103,-0.032008
13.836958,0.049861,0.035144,-0.077276
13.866950,0.143122,0.078007,-0.089423
13.906939,-0.003413,0.096037,-0.053301
13.936930,-0.065710,0.064559,0.031662
13.966922,-0.075803,0.016015,0.075610
14.006911,-0.058189,-0.018000,0.081576
14.036903,0.019795,-0.023752,0.062171
14.066894,0.015199,0.000269,-0.003195
14.106883,0.052365,0.029427,-0.049894
14.136875,0.072549,0.028924,-0.058319
14.166866,0.051091,0.019370,-0.019982
14.206855,0.036960,-0.042034,0.035193
14.236848,0.018001,-0.048385,0.059885
14.266840,-0.005715,-0.030450,0.045620
14.306829,-0.030867,0.021411,-0.020453
14.336820,0.000383,0.035845,-0.036625
14.366812,0.078102,0.018634,-0.031872
14.406801,0.077483,-0.010675,-0.001588
14.436792,0.088763,-0.019532,0.028076
14.466784,0.059943,-0.010433,0.039625
14.506773,0.048056,0.010092,0.012283
14.536765,0.091002,0.007981,-0.002495
14.566756,0.083010,-0.005438,-0.032808
14.606745,0.027216,0.003328,-0.030198
14.636737,0.021094,0.008464,-0.052597
14.666729,0.057084,0.000073,-0.053876
14.706717,0.078628,-0.053246,0.003734
14.736709,0.056288,-0.058641,0.009578
14.766701,0.042754,-0.018672,0.015071
14.806690,0.003829,-0.023219,0.025962
14.836681,0.024533,-0.036746,0.029133
14.866673,-0.009984,0.001548,-0.005670
14.906662,-0.013368,0.055254,-0.012681
14.936653,-0.019447,0.030546,0.010669
14.966645,-0.040756,0.005002,0.034985
15.006634,-0.000250,0.000188,0.080402
15.036626,0.031010,-0.004691,0.074787
15.066617,0.055730,-0.024268,0.048986
15.106606,-0.014247,0.001372,0.001364
15.136598,-0.012970,0.030871,-0.036004
15.166589,-0.015932,0.025333,-0.039713
15.206578,0.030119,-0.002595,-0.014231
15.236569,0.018392,-0.017529,0.017732
15.266561,0.045815,-0.026136,0.036194
15.306550,-0.028625,-0.029137,0.035307
15.336541,-0.001918,-0.008426,0.015548
15.366533,-0.001448,-0.006715,-0.002841
15.406522,0.039263,-0.032531,-0.008420
15.436513,0.026097,-0.028770,-0.020044
15.466505,0.020499,-0.022781,-0.011457
15.506494,0.007089,-0.021326,0.002370
15.536486,0.001566,-0.012326,0.003630
15.566477,0.056298,-0.006028,0.011790
15.606466,0.040007,-0.023081,0.009429
15.636458,0.025863,-0.003888,0.017456
15.666449,0.014377,0.012539,0.023697
15.706438,0.011201,0.017009,0.023789
15.736430,0.030321,0.011896,0.015961
15.766422,0.054697,0.013027,-0.001485
15.806410,0.016091,0.027031,-0.024702
15.836402,-0.010362,0.024801,-0.007358
15.866394,0.001446,0.019725,-0.005093
15.906383,0.056744,0.012872,0.013232
15.936374,0.059362,-0.004624,0.011188
15.977615,-0.000761,0.027303,0.015642
16.017604,-0.036262,0.030726,0.026835
16.047596,-0.020149,0.012237,0.028036
16.077587,-0.017858,0.015454,0.033452
16.117576,0.004821,0.014531,0.031852
16.147568,-0.013958,-0.008364,0.014753
16.177559,-0.015387,0.013357,-0.005619
16.217548,0.029335,0.050925,-0.011418
16.247544,0.004514,0.017672,0.000457
16.277536,-0.026937,-0.004304,0.031780
16.317524,-0.022283,-0.003161,0.026742
16.347516,-0.021413,0.009239,0.015150
16.377508,-0.033645,0.006205,0.016119
16.417497,-0.022837,0.007004,0.014378
16.447488,0.000856,0.012670,0.007332
16.477480,0.002218,0.013822,0.008014
16.517469,-0.036013,0.017358,0.010144
16.537461,-0.017305,0.026466,0.012034
16.577450,-0.012249,0.025230,0.022024
16.607442,-0.003486,0.008689,0.035584
16.637434,-0.002593,0.004982,0.039404
16.677423,-0.015578,0.006385,0.019879
16.707414,0.018011,0.006883,0.007392
16.737406,0.039094,-0.000068,-0.011899
16.777395,0.047188,0.011872,-0.043318
16.807386,0.022483,0.024904,-0.045559
16.837378,0.005611,0.022092,-0.034500
16.877367,0.012475,0.028642,0.003258
16.907359,-0.030288,0.015444,0.027604
16.937350,-0.066594,0.009354,0.043426
16.977339,-0.053826,0.014798,0.062300
17.007331,-0.046998,0.014010,0.060501
17.037322,-0.024809,0.000463,0.050878
17.077311,0.012481,-0.003795,0.030452
17.107303,0.060273,0.006831,0.008685
17.137294,-0.005434,-0.004732,-0.013774
17.177283,0.001074,-0.011355,-0.034214
17.207275,-0.015475,-0.013534,-0.043015
17.237267,-0.008644,-0.020206,-0.032154
17.277251,-0.003154,-0.009120,-0.010890
17.307243,-0.007570,-0.015746,0.007004
17.337235,-0.026716,-0.024283,0.016892
17.377223,-0.012330,-0.008822,0.012321
17.407215,-0.029425,0.002055,-0.002720
17.437207,0.001313,0.017800,-0.004478
17.477196,-0.004460,0.009122,-0.016709
17.507187,0.040649,-0.017193,-0.013426
17.537179,0.065662,-0.021356,-0.011586
17.577168,0.061504,-0.017974,0.013985
17.607159,0.032788,-0.019393,0.025252
17.637151,0.014657,0.000831,0.016661
17.677140,0.012227,0.012965,0.008987
17.707132,0.009930,0.009826,0.016422
17.737123,0.014299,0.001712,0.020711
17.777112,-0.003434,0.004021,0.012484
17.807104,0.033297,-0.010262,0.006525
17.837095,0.027947,-0.004695,-0.005235
17.877084,0.044454,0.018550,-0.026551
17.907076,0.003024,0.022686,-0.026830
17.937067,-0.012780,0.022749,-0.006245
17.977056,-0.001276,0.002668,0.033685
18.007048,0.052668,-0.015056,0.056727
18.037040,0.048835,-0.018799,0.053228
18.077028,-0.021997,0.024389,0.022035
18.107020,-0.009421,0.034506,0.015409
18.137012,-0.041075,0.006622,0.007879
18.177000,-0.020287,-0.019329,0.000061
18.206992,0.041454,-0.022709,0.013934
18.236984,0.015173,-0.030001,0.022873
18.276973,-0.037990,-0.005579,0.022020
18.306964,-0.038535,0.019307,-0.015885
18.336956,0.012371,0.017128,-0.050633
18.376945,0.042248,0.016346,-0.050603
18.406936,0.037243,0.012866,-0.030913
18.436928,0.034116,0.009602,-0.002883
18.476917,-0.026339,0.008014,0.034200
18.506908,-0.003718,0.002475,0.042374
18.536900,0.020126,-0.002172,0.054351
18.576889,0.020274,0.002828,0.012392
18.606881,-0.005855,0.017200,-0.008423
18.636872,-0.026735,0.033375,-0.010765
18.676861,0.013750,0.021269,-0.023632
18.706853,0.060347,0.009097,-0.014503
18.736844,0.045239,-0.011857,0.004061
18.776833,0.024718,-0.002591,-0.008148
18.806825,0.039922,0.001032,-0.007604
18.836816,0.052429,-0.028630,0.009770
18.876805,0.068544,-0.040768,0.022262
18.906797,0.005607,-0.000316,0.026909
18.936788,-0.127161,0.040065,0.078191
18.976777,-0.076153,-0.017116,0.069250
19.006769,0.045206,-0.062087,-0.000516
19.036761,0.085228,-0.025246,-0.025816
19.076749,-0.016422,0.009916,-0.041966
19.106741,-0.060198,0.009683,-0.015576
19.136733,0.038929,-0.025209,0.013470
19.176722,0.083083,-0.066926,0.012074
19.206713,0.060704,-0.040480,-0.010935
19.236705,-0.005851,0.001005,-0.020406
19.276694,-0.027159,0.014378,-0.005711
19.306685,-0.017990,0.004313,0.005336
19.336677,-0.004418,-0.006793,0.027570
19.376666,-0.014437,-0.045151,0.025156
19.406657,-0.057104,-0.006748,0.022217
19.436649,-0.058734,0.014898,0.035128
19.476638,-0.002739,-0.008712,0.024255
19.506629,0.007834,-0.023140,0.011002
19.536621,0.013674,-0.026887,-0.001973
19.576610,-0.029083,-0.014156,0.002956
19.606601,-0.055235,-0.007902,0.001803
19.636593,-0.035481,-0.021238,-0.004650
19.676582,-0.010243,-0.011272,-0.002203
19.706574,0.040999,-0.018292,-0.004672
19.736565,-0.003590,-0.047970,-0.002083
19.776554,-0.013483,-0.022982,0.005439
19.806546,-0.024878,-0.005726,0.004241
19.836537,-0.037243,-0.024715,0.006862
19.876526,0.001230,-0.028149,-0.003453
19.906518,-0.028883,-0.028790,-0.005878
19.936509,-0.040272,-0.040024,-0.000197
19.976500,-0.026110,-0.028056,0.001725
20.016489,-0.022062,-0.021452,0.002842
20.046480,-0.025281,-0.041957,0.000732
20.076472,-0.031540,-0.030695,0.000463
20.116461,-0.006002,-0.018321,0.005094
20.146452,0.003371,-0.032374,0.010159
20.176444,0.009194,-0.016109,0.011781
20.216433,0.030890,0.008973,0.019494
20.246425,0.019106,-0.000382,0.017813
20.276417,-0.005727,-0.019055,0.012596
20.316406,0.002406,-0.002226,0.010382
20.346398,-0.016769,0.001541,0.015239
20.376389,-0.012227,-0.001497,0.008898
20.416378,-0.010211,0.007736,0.017719
20.446370,-0.018969,0.018217,0.012530
20.476361,-0.027980,-0.012334,0.018725
20.506352,-0.039015,-0.000546,0.011502
20.546341,-0.011257,0.020370,0.011893
20.576332,-0.006918,0.003235,0.009530
20.606324,-0.026201,0.004365,0.008729
20.646313,-0.000362,0.023785,0.009733
20.676304,0.000814,0.000446,0.005556
20.706296,-0.000629,-0.006195,0.007479
20.746285,-0.004729,0.025549,0.007154
20.776276,-0.001188,0.016507,0.009874
20.806268,-0.001866,-0.004049,0.008499
20.846257,-0.000114,0.003736,0.014314
20.876248,-0.008560,0.011484,0.014206
20.906240,-0.012161,0.005462,0.015115
20.946229,0.001233,-0.002476,0.018091
20.976221,0.006370,0.009878,0.006480
21.006212,-0.044358,0.012669,0.006741
21.046201,-0.019495,0.007166,0.008471
21.076193,-0.011545,0.021591,0.007049
21.106184,-0.005712,-0.004152,0.002658
21.146173,0.000725,-0.013346,0.007031
21.176165,-0.015923,0.005551,0.014063
21.206156,-0.014012,0.009734,0.011394
21.246145,0.020102,-0.021980,0.005452
21.276137,-0.013061,-0.001465,0.009380
21.306128,-0.030843,0.008257,0.014553
21.346117,-0.001626,-0.005495,0.007532
21.376109,0.000978,-0.006648,0.005583
21.406100,-0.004587,-0.001490,0.002333
21.446089,-0.016534,-0.009914,0.004646
21.476081,-0.006899,-0.008996,0.005494
21.506072,0.004571,-0.003918,0.001608
21.546061,0.016730,0.006830,0.005830
21.576053,0.018806,0.013986,0.000436
21.606045,-0.003326,0.011841,0.006445
21.646033,0.003219,-0.002690,0.008471
21.676025,-0.008922,-0.005983,0.011003
21.706017,0.004001,0.017814,0.008577
21.746005,-0.001252,0.001503,0.005663
21.775997,-0.007114,-0.010941,0.010482
21.805989,-0.000257,-0.000738,0.007666
21.845978,0.009255,0.002795,0.005270
21.875969,0.022149,0.003036,0.014059
21.905961,0.003427,-0.002110,0.012411
21.945950,0.016116,0.010421,0.007747
21.975941,0.009762,0.002331,0.005704
22.005933,0.000653,-0.014662,0.003229
22.045922,0.008880,-0.009579,0.006364
22.075913,-0.002619,-0.004909,0.007014
22.105905,-0.002532,-0.007066,0.004797
22.145894,0.001366,-0.008211,0.008181
22.175885,0.000144,-0.015664,0.005969
22.205877,0.006988,-0.008646,0.007329
22.245866,0.015688,-0.012536,0.009221
22.275861,0.018286,-0.000350,0.011066
22.305853,0.009913,0.002935,0.014103
22.345842,-0.002546,-0.007350,0.007286
22.375833,0.009590,-0.007965,0.007561
22.405825,0.018863,-0.007546,0.013443
22.445814,-0.011710,0.011170,0.016352
22.475805,-0.004698,0.008685,0.004734
22.505797,-0.004805,-0.008770,0.001154
22.545786,-0.002807,-0.004450,0.006825
22.575778,0.017175,0.006149,0.007438
22.605769,0.019368,0.005991,0.003231
22.645758,0.024451,-0.013174,0.006912
22.675750,0.016635,-0.011463,0.009620
22.705741,0.017991,-0.001169,0.008261
22.745730,-0.007907,0.005354,0.005975
22.775722,0.009692,-0.007404,0.001339
22.805713,0.008678,-0.019417,0.005273
22.845702,0.006460,-0.004424,0.007586
22.875694,0.001294,0.008362,0.009043
22.905685,-0.017219,0.003652,0.008504
22.945674,-0.002251,-0.008577,0.007008
22.975666,0.013143,-0.011142,0.007788
23.005657,0.007064,-0.005509,0.012430
23.045646,0.007040,0.001123,0.010873
23.075638,0.000936,-0.005122,0.005007
23.105629,-0.004618,-0.008200,0.008636
23.145618,0.004329,-0.017757,0.007875
23.175610,0.002168,-0.003584,0.011200
23.205601,-0.010383,0.004813,0.010995
23.245590,-0.008552,-0.009655,0.003263
23.275577,-0.002788,-0.014676,0.002207
23.305568,0.009567,-0.005348,0.008901
23.345557,-0.007860,0.009131,0.008731
23.375549,0.010947,-0.008583,0.003065
23.405540,0.009052,-0.005431,0.003314
23.445529,0.010420,0.011705,0.009631
23.475521,0.011108,0.010347,0.007890
23.505513,0.020037,-0.000571,0.007756
23.545501,0.004942,0.010124,0.009219
23.575493,0.001490,0.011857,0.010141
23.605485,0.001760,-0.001025,0.011844
23.645473,0.000386,-0.000346,0.005008
23.675465,0.008151,0.000815,0.006021
23.705457,0.019471,-0.012698,0.002726
23.745445,-0.006427,-0.003795,0.009834
23.775437,0.004084,-0.001363,0.006418
23.805429,-0.007689,-0.000854,0.008518
23.845417,0.013843,-0.011342,0.010347
23.875409,0.008949,-0.012221,0.005935
23.905401,0.010755,0.000269,0.008423
23.945389,-0.006899,0.012936,0.009374
23.977881,-0.001582,-0.009823,0.002488
24.007873,0.001410,-0.006287,0.008789
24.047862,0.011774,0.008955,0.007772
24.077853,-0.000857,0.001482,0.009670
24.107845,0.002646,-0.000560,0.014118
24.147834,-0.003202,0.004323,0.006290
24.177825,0.010176,-0.001801,0.006795
24.207817,0.008605,0.004244,0.007322
24.247806,-0.001822,0.004967,0.003487
24.277802,0.008989,-0.004384,0.004521
24.307793,0.010208,-0.001347,0.004433
24.347782,0.003994,0.008764,0.007435
24.377774,0.001821,0.008504,0.005166
24.407765,0.005772,0.003805,0.011820
24.447754,0.005577,-0.001719,0.008914
24.477746,0.012370,-0.005675,0.003735
24.507736,0.008440,-0.000048,0.006636
24.537728,0.020251,-0.004346,0.005732
24.577717,0.006259,0.003133,0.008459
24.607708,0.010808,0.002546,0.008876
24.637700,0.019741,-0.000250,0.002074
24.677689,0.008652,-0.009238,0.003012
24.707680,0.013164,-0.012314,0.001912
24.737672,0.012716,-0.014484,0.001985
24.777661,0.008219,0.016402,0.012889
24.807652,0.010986,0.005158,0.011396
24.837644,0.012945,-0.002193,0.002139
24.877633,0.012807,0.013258,0.005231
24.907624,0.012740,-0.009176,0.000725
24.937616,0.020683,-0.012016,0.003020
24.977605,0.013468,-0.000304,0.007528
25.007596,0.008693,-0.004556,0.003320
25.037588,0.006847,-0.004529,0.002765
25.077577,0.014925,-0.017690,0.000062
25.107568,0.014854,-0.007435,0.002686
25.137560,0.008848,0.000017,0.007331
25.177549,0.006911,-0.012424,0.009660
25.207540,0.015030,-0.014799,0.007112
25.237532,0.024113,-0.011317,-0.000168
25.277521,0.011042,-0.011778,0.005809
25.307512,0.019947,-0.015533,0.005162
25.337504,0.016743,-0.005598,0.003675
25.377493,0.012104,-0.010055,0.002803
25.407484,0.019813,-0.007199,-0.001458
25.437476,0.012203,0.000905,0.001528
25.477465,0.018203,-0.014394,0.002296
25.507456,0.019030,-0.024065,-0.000014
25.537448,0.020064,-0.018480,-0.000710
25.577437,0.015247,-0.009241,0.002377
25.607428,0.018691,-0.004472,0.011844
25.637420,0.017544,0.013636,0.011147
25.677409,0.022173,-0.005521,0.008285
25.707400,0.023379,-0.018557,0.005985
25.737392,0.020933,-0.002222,0.001759
25.777381,0.008523,-0.005177,0.002488
25.807372,0.014917,-0.009246,-0.000089
25.837364,0.009916,-0.003100,0.001422
25.877353,0.022606,0.010556,0.000459
25.907345,0.007371,0.007669,0.002573
25.937336,0.001101,-0.011395,0.004818
25.977325,0.006057,0.011127,0.008668
26.007317,-0.000803,0.014320,0.012279
26.037308,0.004177,0.002553,0.014858
26.077297,0.004775,-0.011452,0.014792
26.107289,-0.000144,0.002725,0.011472
26.137280,-0.002526,0.011730,0.012351
26.177269,-0.003196,0.001662,0.009883
26.207261,-0.005811,0.011973,0.008357
26.237252,-0.005861,0.013538,0.004721
26.277238,0.021991,-0.000765,0.008617
26.307230,0.005565,0.020128,0.013057
26.337221,0.007906,-0.000854,0.011909
26.377210,0.005923,-0.003208,0.011072
26.407202,0.014609,-0.000478,0.012974
26.437193,0.017796,-0.008069,0.011490
26.477182,0.008046,0.005045,0.008833
26.507174,0.011993,0.003806,0.006158
26.537165,0.002860,-0.006669,0.007411
26.577154,0.002774,0.002058,0.008897
26.607146,0.006724,0.009854,0.007977
26.637137,-0.003131,0.002946,0.009839
26.677126,-0.006229,0.007033,0.012590
26.707118,0.004174,0.003258,0.011918
26.737109,0.006485,-0.011101,0.008518
26.777098,0.017348,0.000597,0.005413
26.807090,0.011022,0.001244,0.008818
26.837081,-0.001542,0.004829,0.008413
26.877070,0.012253,0.003632,0.008851
26.907062,0.005358,-0.009455,0.012263
26.937053,0.002532,0.008480,0.007993
26.977042,0.000156,0.010101,0.002088
27.007034,0.008989,-0.010407,0.005519
27.047022,-0.001445,-0.000520,0.008459
27.077014,0.011968,0.011788,0.006668
27.107006,0.002604,0.013470,0.012228
27.146994,0.013241,0.000329,0.007198
27.176986,0.004163,0.001150,0.007392
27.206978,0.011014,-0.002562,0.006561
27.236969,0.000027,0.009344,0.012136
27.276958,0.009852,0.009387,0.005097
27.306950,0.010000,-0.013856,0.001727
27.346938,0.001641,0.002675,0.009158
27.376930,-0.003853,0.012060,0.009588
27.406922,-0.000425,0.001858,0.008059
27.446910,0.007140,-0.008593,0.008409
27.476902,0.000382,0.001199,0.015724
27.506894,-0.004582,0.008667,0.013967
27.546882,0.004100,-0.003405,0.010869
27.576874,0.010720,-0.008217,0.004283
27.606866,0.013429,0.003739,0.006889
27.646854,0.000742,0.012411,0.002360
27.676846,0.004247,-0.009803,0.002807
27.706838,0.007536,0.014462,0.008955
27.746826,0.004094,-0.005277,0.010634
27.776818,0.012071,-0.001346,0.009477
27.806810,0.011833,0.008959,0.009386
27.846798,0.003679,0.005885,0.005853
27.876790,0.002226,0.012856,0.007988
27.906781,-0.000737,0.006996,0.002044
27.946770,0.009915,0.004362,0.006974
27.979262,0.010045,0.005451,0.006349
28.009254,-0.003785,0.007849,0.011247
28.049243,0.011573,0.011852,0.008682
28.079234,0.002070,0.003458,0.006731
28.109226,0.007620,0.002328,0.008615
28.149215,0.002774,-0.006954,0.004787
28.179206,0.000634,0.006586,0.001661
28.209198,-0.001946,0.001208,0.003960
28.249187,0.006644,0.005718,0.002190
28.279178,0.020815,-0.002115,0.000512
28.309169,0.016316,-0.009149,0.000687
28.349159,0.010770,0.003554,0.003686
28.379150,0.014275,-0.007463,0.003582
28.409141,0.019225,-0.016344,0.003677
28.449131,0.017402,-0.006957,0.000619
28.479122,0.021781,-0.005521,0.003251
28.509112,0.019834,-0.013985,0.003026
28.539103,0.012616,-0.003384,-0.002683
28.569095,0.007036,0.001601,0.009536
28.609083,0.016996,-0.004322,0.000672
28.639075,0.026373,-0.006282,0.001310
28.669067,0.027220,-0.008841,0.003963
28.709055,0.018482,-0.000919,0.004809
28.739048,0.014887,-0.000970,0.009210
28.769039,0.023450,-0.010658,0.005929
28.809027,0.013526,-0.025322,0.001941
28.839020,0.020635,-0.005005,-0.001478
28.869011,0.012629,0.008274,0.007123
28.908999,0.009798,0.008017,0.002398
28.938992,0.014491,0.006430,0.004612
28.968983,0.018310,-0.006820,0.002467
29.008971,0.015244,-0.004386,0.005067
29.038964,0.008860,0.003855,0.008946
29.068955,0.006084,-0.003850,0.006468
29.108943,0.012704,-0.011001,0.004910
29.138934,0.006283,-0.009826,0.008619
29.168926,0.004896,0.001737,0.010381
29.208915,0.001647,0.009002,0.010396
29.238906,0.000491,-0.004331,0.006959
29.268898,0.006519,-0.007371,0.004682
29.308887,0.016487,0.003142,0.004226
29.338878,0.002854,0.002249,0.010660
29.368870,-0.007640,0.002017,0.012838
29.408859,0.002231,-0.002319,0.016437
29.438850,0.008219,0.002348,0.014768
29.468842,0.008013,0.003133,0.013365
29.508831,0.002744,0.012562,0.008627
29.538822,0.004120,0.004433,0.005120
29.568814,0.008715,0.005305,0.006486
29.608803,0.003552,0.002500,0.004137
29.638794,0.011354,-0.004047,0.006760
29.668786,0.001918,-0.004039,0.003251
29.708775,-0.007055,-0.022448,0.002414
29.738766,0.004655,-0.048679,-0.002500
29.768758,0.022539,-0.068430,-0.006873
29.808747,0.015491,-0.020636,0.008152
29.838738,0.003041,-0.005654,0.007582
29.868730,0.011015,0.001731,0.006112
29.908719,0.007449,0.008662,0.008970
29.938710,0.013358,-0.000264,0.005713
29.968702,0.007069,0.007518,0.007635
30.008691,0.010514,0.009490,0.013003
30.038682,0.006952,0.008250,0.006492
30.068674,0.014757,-0.004107,0.006333
30.108663,0.020053,-0.007721,0.004600
30.138654,0.027032,-0.015755,0.001205
30.168646,0.020770,-0.018719,0.009256
30.208634,0.005264,-0.007979,0.007727
30.238626,0.004056,-0.005043,0.007400
30.268618,0.010978,0.012493,0.006669
30.308606,-0.004888,-0.000463,0.004893
30.338598,0.004288,-0.001748,0.007936
30.368590,0.017505,0.012967,0.008339
30.408578,0.001751,0.007643,0.005963
30.438570,0.011364,-0.003490,0.009322
30.468562,0.002997,0.012985,0.011705
30.508550,0.010709,0.005739,0.006524
30.538542,0.001849,-0.004688,0.006615
30.568533,0.010783,-0.000499,0.006467
30.608522,0.003932,0.009568,0.010772
30.638514,0.003922,0.001176,0.005720
30.668505,0.004103,-0.002959,0.008435
30.708494,-0.002519,0.012575,0.006519
30.738486,0.001262,0.000847,0.006181
30.768477,0.006649,0.003900,0.010049
30.808466,0.007910,0.001174,0.009158
30.838458,0.008554,-0.001333,0.012386
30.868449,0.002168,0.000245,0.008226
30.908438,0.005815,0.003476,0.011067
30.938430,-0.000873,0.003413,0.005667
30.968421,0.009024,-0.000289,0.004087
31.008410,0.004841,-0.004471,0.009289
31.038402,-0.008522,-0.002939,0.006367
31.068393,0.001070,0.000906,0.006485
31.108382,0.005712,0.003981,0.009608
31.138373,0.002549,0.007155,0.005434
31.168365,-0.000882,0.008701,0.008994
31.208354,0.007353,0.005570,0.008168
31.238345,0.019047,0.000222,0.007146
31.268338,0.001952,0.012296,0.007532
31.308327,0.005201,0.001438,0.006893
31.338318,0.008627,-0.020819,0.008252
31.368310,0.003509,0.002283,0.007656
31.408299,0.006352,0.016076,0.010013
31.438290,0.008328,0.000185,0.006510
31.468282,0.008573,-0.011194,0.001256
31.508271,0.007925,0.001548,0.000561
31.538262,0.012278,0.002706,0.003323
31.568254,0.014591,-0.008959,0.004324
31.608242,0.013921,0.004310,0.005043
31.638234,0.016827,0.001744,0.007919
31.668226,0.014777,-0.003180,0.007433
31.708214,0.011192,-0.001554,0.005123
31.738206,0.009269,-0.003739,0.005145
31.768197,0.018174,0.002887,0.002624
31.808186,0.006424,0.007338,0.008877
31.838178,0.011686,-0.007763,0.008915
31.868169,0.010305,-0.014169,0.004737
31.908158,0.009816,0.008085,0.005184
31.938150,0.008815,-0.000449,0.003876
31.979390,0.012358,-0.006850,0.000710
32.009381,0.016063,-0.003649,0.004501
32.049370,0.020499,-0.001622,0.004820
32.079362,0.010350,0.001124,0.007413
32.109353,0.011715,-0.000981,0.007191
32.149342,0.010554,-0.005654,0.006110
32.179334,0.013005,0.003585,0.007509
32.209325,0.013035,-0.006006,0.003941
32.249314,0.014284,-0.000557,0.002621
32.279306,0.010052,0.003344,0.003093
32.309297,0.007218,-0.004734,0.003473
32.349286,0.004907,-0.001630,0.005404
32.379277,0.020460,-0.004977,0.006477
32.409269,0.009396,-0.008851,0.008079
32.449258,0.006663,-0.001699,0.009496
32.479249,0.006624,0.007380,0.011363
32.509241,0.004005,0.003527,0.009683
32.539230,-0.004858,-0.003241,0.008897
32.569222,0.005258,0.003404,0.002622
32.609211,-0.004554,-0.004453,0.010477
32.639202,0.005619,-0.002564,0.007338
32.669194,-0.008396,0.001323,0.006894
32.709182,0.001070,0.009342,0.005537
32.739174,-0.007290,0.005483,0.010778
32.769166,-0.006733,0.002659,0.010018
32.809154,-0.000593,0.012378,0.008461
32.839146,0.007327,0.000654,0.007850
32.869137,0.002751,0.001368,0.012087
32.909126,-0.002653,0.012939,0.009448
32.939118,0.006792,0.006992,0.008380
32.969109,0.011350,0.010814,0.010173
33.009098,0.014502,-0.006478,0.010285
33.039090,0.011202,-0.007271,0.009827
33.069081,0.005004,0.013612,0.012180
33.109070,-0.011217,0.000548,0.003251
33.139061,0.001619,-0.011091,0.005861
33.169053,0.002045,-0.007359,0.008916
33.209042,-0.011227,0.000712,0.010124
33.239033,-0.009493,0.000595,0.008798
33.269028,-0.011163,0.002639,0.010054
33.309017,0.006226,0.002359,0.010013
33.339008,0.019197,-0.001335,0.012399
33.369000,0.017013,-0.004954,-0.003626
33.408988,0.008925,-0.000170,0.008673
33.438980,0.009661,0.000404,0.009522
33.468972,-0.014207,-0.010126,-0.002841
33.508960,0.003711,0.006973,0.004529
33.538952,-0.006910,0.015708,0.004656
33.568943,-0.006910,0.005128,0.006967
33.608932,-0.001293,0.018870,0.011816
33.638924,0.007040,0.008754,0.012577
33.668915,0.006857,0.004605,0.009336
33.708904,0.010644,0.010662,0.009096
33.738896,0.010788,0.009588,0.014644
33.768887,0.008955,0.004365,0.009685
33.808876,0.015705,0.005427,0.010360
33.838867,0.009038,0.007764,0.008366
33.868859,0.006660,0.003486,0.005288
33.908848,0.012966,0.006244,0.008477
33.938839,0.013665,0.003021,0.009428
33.968831,-0.000779,0.000548,0.012284
34.008819,0.009945,-0.002179,0.013654
34.038811,0.003092,-0.007624,0.008949
34.068803,0.010056,-0.002454,0.009014
34.108791,0.007147,0.008272,0.009042
34.138783,0.006878,-0.000413,0.009152
34.168774,0.000419,-0.004794,0.005444
34.208763,0.007755,-0.000134,0.002699
34.238755,0.005394,-0.004694,0.006364
34.268743,-0.000795,-0.000888,0.006451
34.308732,0.000362,0.000719,0.008831
34.338723,0.003318,-0.002407,0.008495
34.368715,0.009868,0.005185,0.010865
34.408704,-0.003728,0.007300,0.008944
34.438695,0.006458,-0.003145,0.001697
34.468687,0.009416,0.000687,0.004989
34.508676,0.007586,0.005323,0.007112
34.538667,0.006811,0.002988,0.008888
34.568659,-0.002323,0.013520,0.007446
34.608647,0.005434,0.004297,0.006343
34.638639,0.011065,-0.003640,0.004945
34.668630,0.018531,0.002931,0.004479
34.708619,0.005364,-0.001566,0.005953
34.738611,0.012065,0.002207,0.003608
34.768602,0.008012,-0.000491,0.000325
34.808591,0.015230,-0.007203,0.000642
34.838582,0.014637,-0.002735,0.004194
34.868574,0.016023,0.000676,0.006122
34.908563,0.018876,-0.010752,0.008006
34.938554,0.027424,-0.015723,0.007326
34.968546,0.017384,-0.001363,0.010266
35.008535,0.011293,-0.017422,0.008722
35.038526,0.013426,-0.006886,0.005431
35.068518,0.019735,-0.013454,0.000542
35.108506,0.010625,0.006238,0.003764
35.138498,-0.001186,0.004791,0.010053
35.168489,0.009161,-0.018735,0.003942
35.208478,0.011667,0.008612,0.005147
35.238470,0.010367,0.008631,0.006463
35.268461,0.008757,0.003047,0.005337
35.308450,0.004092,0.028316,0.008502
35.338441,0.026515,0.019796,0.009289
35.368433,-0.009264,0.028100,0.009091
35.408422,0.013924,0.015503,0.003219
35.438413,0.018364,0.005024,0.005583
35.468405,0.014163,-0.012987,0.005266
35.508393,0.020168,-0.010271,0.001688
35.538385,0.010745,-0.011010,0.005808
35.568377,0.008714,-0.017358,0.001043
35.608365,0.017923,-0.012146,0.001003
35.638357,0.006511,0.001233,0.009427
35.668348,-0.001846,0.004779,0.007245
35.708337,0.011743,-0.012200,0.002159
35.738328,0.011062,-0.020899,0.002352
35.768320,0.003350,-0.006093,0.006209
35.808309,0.002872,-0.007938,0.008817
35.838300,0.000478,-0.001002,0.009829
35.868292,0.001206,0.000860,0.013394
35.908281,-0.009464,-0.001618,0.011533
35.938272,0.006781,0.009855,0.000860
35.978263,-0.000069,-0.015522,0.007868
36.008254,0.002143,-0.008910,0.009937
36.048243,0.002239,0.009997,0.010712
36.078235,-0.015107,0.013688,0.013900
36.108226,-0.018818,0.001431,0.016323
36.148215,-0.025663,0.013470,0.018428
36.178206,-0.014375,0.013396,0.013961
36.208198,0.020774,0.001007,0.003880
36.248187,0.006647,-0.004367,0.006353
36.278177,0.012082,0.002263,0.007021
36.308169,0.013853,0.001532,0.006579
36.348157,0.008112,-0.001464,0.006040
36.378149,0.025865,-0.002753,0.004486
36.408141,0.005089,0.002479,0.006651
36.448129,0.007041,-0.008889,0.005561
36.478121,0.002823,-0.002310,0.007129
36.508111,-0.000860,0.004421,0.005307
36.538102,0.006029,-0.008692,0.005372
36.578091,0.007390,-0.003318,0.009322
36.608083,0.002496,0.006720,0.010106
36.638074,0.008932,0.003668,0.010250
36.678063,0.003643,-0.005788,0.011827
36.708054,0.012909,-0.004820,0.010593
36.738046,0.004951,0.000350,0.010894
36.778035,0.002469,0.002539,0.007466
36.808026,0.008752,-0.004268,0.001739
36.838018,0.002131,-0.002903,0.003681
36.878006,0.006796,0.002390,0.011133
36.907998,-0.000555,0.008974,0.009542
36.937989,0.005078,-0.004378,0.007860
36.977978,0.005212,0.003794,0.010161
37.007970,-0.004263,0.012271,0.003174
37.037961,0.006430,0.005587,0.003757
37.077950,0.004631,0.007779,0.008897
37.107941,0.009568,0.001664,0.003322
37.137933,0.009919,-0.000088,0.007711
37.177922,-0.000619,0.010883,0.008915
37.207913,-0.000160,0.008248,0.010757
37.237905,0.009639,-0.005061,0.005802
37.277901,0.009269,0.006732,0.007371
37.307893,0.007095,0.004860,0.008966
37.337884,0.001581,0.004834,0.008423
37.377873,0.001184,0.003603,0.005269
37.407865,0.005463,-0.012119,0.002485
37.437856,0.012068,0.000816,0.006357
37.477845,0.002504,0.010022,0.011967
37.507836,0.006410,-0.011203,0.008710
37.537828,0.012919,-0.004099,0.006233
37.577817,0.008246,-0.000720,0.008436
37.607808,0.013252,-0.002634,0.009365
37.637800,0.005426,-0.001179,0.004777
37.677788,0.006968,-0.007195,0.003149
37.707780,0.005931,-0.000182,0.006721
37.737771,0.011021,0.002466,0.002682
37.777760,0.004404,0.002473,0.011705
37.807752,0.000372,-0.000214,0.010441
37.837743,-0.001017,-0.007691,0.008650
37.877732,-0.001593,0.013244,0.005675
37.907723,0.003989,0.009819,0.005898
37.937715,0.000717,0.002326,0.005894
37.977704,0.011825,-0.002289,0.004565
38.007695,0.016036,0.002395,0.004188
38.037687,0.002005,0.017953,0.011225
38.077675,-0.001096,0.004820,0.009459
38.107667,0.011401,-0.000360,0.005028
38.137658,0.019825,-0.007344,0.000425
38.177647,0.008537,-0.010727,0.007298
38.207638,0.006230,0.001265,0.007340
38.237630,0.006085,0.015397,0.004928
38.277613,0.015380,-0.019315,-0.002128
38.307604,0.013722,-0.010980,0.002408
38.337596,0.006163,-0.000199,0.004269
38.377584,0.017788,-0.010322,0.006606
38.407576,0.013972,-0.009922,0.006330
38.437567,0.017981,-0.007205,0.007997
38.477556,0.022481,-0.012143,0.008261
38.507548,0.013353,-0.006242,0.007470
38.537539,0.013981,-0.008847,0.004421
38.577528,0.022683,-0.011654,0.002451
38.607519,0.018844,-0.010760,0.002363
38.637511,0.004095,-0.004037,0.007038
38.677500,0.017931,-0.012410,0.006660
38.707491,0.013153,-0.014598,0.002589
38.737483,0.029531,-0.008044,0.003718
38.777471,0.002899,0.005587,0.010067
38.807463,0.001819,-0.006388,0.007320
38.837454,0.015563,-0.004764,0.009405
38.877443,0.014364,-0.008988,0.001492
38.907434,0.013115,-0.010997,0.002163
38.937426,0.014469,0.000660,0.006569
38.977415,0.000396,0.001450,0.005814
39.007406,0.011713,-0.002947,0.006025
39.037398,-0.001800,-0.012413,0.003658
39.077386,-0.012127,0.001256,0.003803
39.107378,-0.006902,0.001007,-0.000516
39.137369,-0.004239,-0.014896,0.001861
39.177358,0.017746,-0.002305,0.007619
39.207350,0.010379,-0.001789,0.010786
39.237341,-0.004951,-0.005331,0.013267
39.277328,0.007912,-0.007083,0.009178
39.307319,0.007297,-0.001636,0.012390
39.337311,0.007425,0.011381,0.016005
39.377299,0.013016,0.003372,0.014691
39.407291,0.019022,0.019219,0.000523
39.437282,0.004252,0.019407,0.005136
39.477271,0.012573,0.004457,0.005116
39.507263,0.008171,0.005353,0.003134
39.537254,0.003057,0.017403,0.008116
39.577243,0.013546,0.010697,0.007328
39.607234,0.015552,0.004425,0.001890
39.637226,0.021805,-0.001679,0.004690
39.677215,-0.017272,0.003352,-0.008269
39.707206,0.020736,0.003884,-0.001715
39.737198,0.002856,0.018225,-0.004451
39.777186,0.004377,0.013469,0.001577
39.807178,0.011857,0.013194,0.002778
39.837169,0.002925,0.012776,0.002913
39.877158,0.019262,-0.011405,0.005507
39.907149,-0.000505,-0.006611,0.001414
39.937141,0.005344,-0.006393,0.008975
39.982130,0.013370,-0.010228,0.004892
40.012121,0.030490,0.003437,0.007648
40.042113,0.029561,-0.002209,0.008928
40.082101,-0.003703,0.003505,0.006397
40.112093,0.004677,0.011129,0.012909
40.142084,-0.001961,-0.000110,0.010103
40.182073,-0.022983,0.000788,0.008082
40.212064,-0.013807,-0.014671,0.003575
40.242056,0.001030,-0.010826,0.008947
40.282046,0.015886,-0.000504,0.016137
40.312037,-0.001018,-0.003916,0.011610
40.342029,0.001690,0.003748,0.008174
40.382017,-0.012898,0.001115,-0.000759
40.412009,-0.015912,-0.005453,0.002117
40.442000,-0.010998,0.000455,0.004283
40.481989,-0.002645,-0.003629,0.004099
40.511980,0.004808,0.006902,0.007448
40.541970,0.002794,0.002709,0.012524
40.571961,0.016250,0.007272,0.012187
40.601953,0.010376,0.008492,0.009416
40.641941,0.021830,-0.007707,0.004947
40.671933,0.009531,-0.002331,0.007904
40.701924,0.017925,0.003106,0.008913
40.741913,0.002559,-0.005614,0.000367
40.771905,0.004127,-0.005674,0.004191
40.801896,0.016428,-0.002336,0.003934
40.841885,0.010515,0.000164,0.010199
40.871876,0.004643,-0.007067,0.005552
40.901868,0.000694,-0.014596,0.004478
40.941856,0.002348,0.003618,0.008687
40.971848,-0.005584,0.002236,0.007507
41.001839,0.002579,-0.008330,0.007586
41.041828,0.009692,-0.014798,-0.002356
41.071820,-0.008722,-0.012526,0.002863
41.101811,-0.000933,0.002303,0.011002
41.141800,-0.004728,-0.006600,0.010656
41.171791,0.009607,-0.009255,0.005649
41.201783,0.011232,0.005287,0.008612
41.241771,-0.003130,0.011786,0.007329
41.271762,0.005817,-0.015633,0.006556
41.301753,0.012928,-0.008448,0.006394
41.341742,0.010120,-0.003595,0.006291
41.371734,0.006206,-0.003802,0.011539
41.401725,0.009058,0.002036,0.007216
41.441714,0.007181,-0.010159,0.006090
41.471705,0.000958,-0.010880,0.009488
41.501697,0.002349,-0.001607,0.004266
41.541685,0.023022,-0.013643,0.003838
41.571677,0.019910,-0.017232,0.005846
41.601668,0.013874,-0.005054,0.009642
41.641657,0.022089,-0.010328,0.007114
41.671649,0.021871,-0.015569,0.009306
41.701640,0.017113,-0.019893,0.005175
41.741629,0.011375,-0.021236,0.003518
41.771620,-0.008778,-0.002296,0.006705
41.801612,-0.016165,-0.010827,0.011958
41.841600,-0.000161,-0.023288,0.014980
41.871592,0.024342,-0.023168,0.014057
41.901583,-0.006286,-0.024962,0.034281
41.941572,0.014359,-0.009994,0.018280
41.971563,0.020254,-0.010298,0.003596
42.001555,0.014214,-0.015221,0.001353
42.041544,0.006302,-0.005296,0.004973
42.071535,0.008112,-0.014759,0.000547
42.101527,0.010045,-0.005220,-0.005087
42.141515,0.009705,-0.017136,-0.005594
42.171507,0.002828,-0.017543,0.006042
42.201498,0.017926,-0.003471,0.010303
42.241487,0.005489,0.000918,0.015030
42.271479,-0.004957,0.002622,0.012553
42.301471,0.016861,-0.014668,0.009195
42.341460,-0.003491,-0.004898,0.006052
42.371451,0.013406,-0.002285,0.009600
42.401443,0.004880,-0.000307,0.005987
42.441431,0.002509,-0.006887,0.001284
42.471423,-0.011453,0.005796,0.001531
42.501414,-0.003724,0.004906,0.003769
42.541403,-0.001306,-0.009322,0.007290
42.571394,0.001939,0.003524,0.007483
42.601386,-0.005701,0.006160,0.008717
42.641375,-0.007917,-0.001324,0.008102
42.671366,0.016112,0.006287,0.006324
42.701358,-0.003669,0.007181,0.017118
42.741346,-0.003023,-0.001128,0.012427
42.771338,0.002037,0.011224,0.012212
42.801329,0.006986,0.013241,0.007509
42.841318,-0.020686,0.000553,0.012902
42.871309,-0.008546,0.012730,0.014435
42.901301,0.006150,0.011190,0.015061
42.941289,-0.003066,0.009023,0.014041
42.971281,0.001397,0.007857,0.012577
43.001272,0.011497,0.006412,0.010333
43.041261,0.002290,0.015767,0.009678
43.071253,0.018842,0.007610,0.013232
43.101244,0.010949,-0.001382,0.007016
43.141233,-0.002436,0.004751,0.005644
43.171224,0.000493,-0.002679,0.005123
43.201216,-0.003193,-0.004759,0.000348
43.241204,-0.009031,0.004067,0.010019
43.271196,-0.004353,0.005346,0.007966
43.301187,-0.005915,-0.001617,0.007094
43.341176,-0.000248,-0.004830,0.010354
43.371167,0.007284,-0.006304,0.011983
43.401159,0.006503,0.015123,0.009117
43.441148,-0.001906,0.002723,0.006936
43.471139,-0.002215,-0.002636,0.000960
43.501130,-0.001983,-0.005734,0.008576
43.541119,0.006192,-0.000259,0.009725
43.571111,-0.003175,0.004768,0.004557
43.601102,0.011518,-0.001319,0.005337
43.641091,-0.008561,0.001314,0.002412
43.671082,0.006059,0.001317,0.004010
43.701074,-0.002774,0.001835,0.003476
43.741062,0.018213,0.026990,0.001479
43.771054,0.026355,0.014138,0.001410
43.801045,0.016000,0.007013,0.006521
43.841034,-0.006141,0.018241,0.009857
43.871026,0.005916,0.003112,0.013792
43.901017,0.008291,-0.006254,0.010146
43.941006,0.000807,0.003901,0.010140
43.983496,0.005719,0.002814,0.007168
44.013487,-0.013766,-0.003757,0.003924
44.043479,0.003091,-0.005671,0.004382
44.083467,-0.005180,-0.003632,0.003865
44.113459,0.009317,-0.002353,0.007710
44.143450,0.008410,-0.007483,0.007141
44.183439,0.016727,-0.004764,0.010699
44.213430,0.024645,0.010778,0.012673
44.243422,0.013909,0.020739,0.015600
44.283410,-0.013357,0.011324,0.013889
44.313402,-0.008073,0.014503,0.002672
44.343393,0.013022,0.007850,-0.005280
44.383382,-0.041448,-0.005119,-0.002816
44.413374,-0.036345,-0.001055,-0.001837
44.443365,0.041274,0.010407,-0.015703
44.483354,0.041049,0.009954,-0.002064
44.513345,0.021449,-0.009828,-0.000730
44.533337,0.030454,-0.013279,0.008525
44.573326,0.016017,0.013781,0.015550
44.603317,-0.009688,-0.004732,0.015837
44.633309,0.018295,-0.030103,0.015435
44.673297,0.001806,-0.013135,0.025135
44.703289,-0.009433,0.005398,0.022697
44.733280,0.032840,-0.011404,0.010379
44.773269,0.049123,-0.024195,0.015208
44.803260,0.013996,-0.016755,0.019891
44.833252,0.014912,-0.019741,0.008747
44.873240,0.033173,-0.013825,0.006157
44.903232,0.022980,-0.025551,0.004800
44.933223,0.008382,-0.027612,0.013802
44.973212,-0.012904,0.011911,0.016250
45.003204,-0.006357,0.006244,0.010393
45.033195,-0.000490,-0.017202,0.010442
45.073184,0.019698,-0.002008,0.012166
45.103175,0.026224,0.014542,0.012207
45.133167,0.000906,0.005744,0.008808
45.173155,0.009423,-0.002557,0.001509
45.203147,0.005506,0.007010,-0.002206
45.233138,-0.007041,0.006102,0.005698
45.273127,0.013048,0.004393,0.003933
45.303118,0.016341,0.011035,0.009040
45.333110,0.030625,0.014191,0.008239
45.373098,0.007116,0.000854,0.003593
45.403090,0.010813,-0.003187,0.006687
45.433081,-0.003755,0.012211,0.004213
45.473070,0.005280,-0.015017,-0.004169
45.503061,0.003674,-0.019228,0.001804
45.533053,0.001929,0.016540,0.005232
45.573042,0.010629,-0.005213,0.015749
45.603033,0.039442,-0.029236,0.010018
45.633025,0.027321,-0.018711,0.013755
45.673013,-0.002878,-0.004760,0.020228
45.703005,0.008943,0.009616,0.023604
45.732996,0.026687,0.000009,0.015227
45.772985,0.018545,-0.033837,-0.000189
45.802976,0.013802,-0.017502,0.002918
45.832968,-0.002194,-0.005261,0.002588
45.872956,0.003390,-0.013462,0.002662
45.902948,0.015552,-0.007524,0.002408
45.932939,0.030646,-0.013448,-0.002828
45.972928,0.022503,-0.024185,0.000140
46.002919,0.006662,-0.010483,0.009954
46.032911,0.019992,0.001285,0.010127
46.072899,0.020192,-0.017618,0.007754
46.102891,0.037179,-0.023926,0.003902
46.132882,0.034765,-0.018655,0.000856
46.172871,0.027303,-0.010362,0.005339
46.202862,0.014058,-0.008031,0.007776
46.232854,0.012661,-0.012291,0.005780
46.272843,0.024847,-0.017955,0.004307
46.302833,0.000850,-0.025349,0.003996
46.332824,-0.009992,-0.022891,0.006806
46.372814,-0.004228,-0.007120,0.008550
46.402805,0.024757,-0.009683,0.004833
46.432796,0.038647,-0.022230,0.002507
46.472786,0.000734,-0.009032,0.011482
46.502776,-0.022843,-0.001120,0.013317
46.532769,-0.024729,0.004181,0.010131
46.572757,-0.011399,-0.002984,0.009986
46.602748,0.002086,-0.000352,0.005829
46.632739,0.016029,-0.007443,0.003531
46.672729,-0.010405,-0.004306,0.010553
46.702720,-0.027258,0.007408,0.016209
46.732711,-0.026051,0.006442,0.028570
46.772699,-0.001767,0.020412,0.007243
46.802692,0.038910,-0.002330,0.005597
46.832682,0.024767,-0.025425,-0.005505
46.872671,-0.017517,0.029340,0.017445
46.902663,-0.003868,0.023206,0.009290
46.932654,0.000211,-0.003195,0.008627
46.972642,-0.008999,0.011508,0.006981
47.002635,-0.011221,0.020206,0.010191
47.032625,0.023264,0.024069,0.012410
47.072614,0.030827,-0.003084,0.001999
47.102605,0.010243,-0.022716,0.005546
47.132597,-0.027907,0.012927,0.010092
47.172586,-0.025055,0.041112,0.012866
47.202578,0.000201,-0.005348,0.002872
47.232569,0.019716,-0.026603,-0.000723
47.272558,0.007683,0.017627,0.015704
47.302550,0.003709,0.009359,0.006367
47.332541,-0.010436,-0.005702,0.014119
47.372530,-0.002617,0.004556,0.005034
47.402521,-0.014616,-0.002082,0.006984
47.432513,-0.007458,-0.010805,0.003327
47.472501,0.002773,-0.007111,0.006056
47.502493,-0.015183,-0.002287,0.009707
47.532484,-0.006650,0.004282,0.008561
47.572473,0.009836,-0.000633,0.002518
47.602464,0.008845,0.003381,0.007233
47.632456,-0.014868,0.004328,0.002912
47.672444,-0.016497,0.009528,0.006722
47.702436,-0.024944,-0.000434,0.002862
47.732427,-0.016786,0.009000,0.005246
47.772416,-0.015167,0.004654,-0.000506
47.802407,-0.009035,0.011759,0.005898
47.832399,0.007907,0.015150,0.005854
47.872387,0.007279,0.007683,0.006101
47.902379,0.026212,0.011159,0.006755
47.932370,0.010641,0.013324,0.011382
47.972359,0.000802,0.019663,0.007965
48.014849,0.007986,0.012860,0.004560
48.044841,-0.003141,0.007187,0.005696
48.074832,0.007674,0.009331,0.007906
48.114821,0.019463,0.011972,0.005170
48.144812,0.028112,0.002941,0.003802
48.174804,0.026111,-0.008685,0.005578
48.214792,0.000050,-0.002808,0.008710
48.244784,0.014623,0.028076,0.012641
48.274775,0.008960,0.015966,0.012047
48.314764,0.008615,-0.021897,0.007473
48.344755,0.012985,0.002395,0.012995
48.374747,0.000696,0.002594,0.009135
48.414735,0.062383,-0.003865,-0.000498
48.444727,0.078192,0.012578,0.009802
48.474718,0.042347,-0.077811,0.020059
48.504708,-0.022212,-0.012640,0.011657
48.544697,0.035624,0.097531,0.013039
48.574688,0.009959,-0.094966,0.000358
48.604680,0.067253,-0.116386,-0.001414
48.644668,0.029931,0.082303,0.020109
48.674660,-0.035077,-0.032863,0.010559
48.704651,-0.128529,-0.081684,0.005414
48.744640,-0.102005,0.038289,0.009909
48.774631,0.031275,0.032092,-0.012009
48.804623,0.042073,-0.077322,-0.013543
48.844611,-0.101400,-0.059370,0.010478
48.874603,-0.159237,0.085402,0.020761
48.904594,-0.124167,0.087856,0.016000
48.944583,0.080310,0.002514,-0.003370
48.974574,0.101122,-0.038312,-0.013099
49.004566,0.077098,-0.015550,-0.004380
49.044554,-0.010179,0.089047,0.024256
49.074546,0.013472,0.056286,0.021697
49.104537,0.057721,0.005757,0.009072
49.144526,0.092550,0.005867,-0.005481
49.174517,0.093698,0.019306,0.002276
49.204509,0.070531,0.020041,0.018016
49.244498,0.052641,0.018806,0.013696
49.274489,0.029550,0.007403,0.015710
49.304480,0.024237,0.010148,0.003451
49.344469,0.002288,-0.011256,-0.011763
49.374461,-0.000669,-0.006505,-0.012819
49.404452,0.006573,-0.017442,-0.005481
49.444441,0.003572,-0.021725,0.004480
49.474432,0.010389,0.009334,0.014087
49.504423,0.026165,0.003536,0.009087
49.544412,0.026417,-0.030114,0.003647
49.574403,0.037877,-0.006568,0.008877
49.604395,-0.000397,0.019466,0.014046
49.644384,0.004420,-0.009237,0.002505
49.674375,0.006740,-0.012813,-0.000436
49.704366,-0.004113,0.000238,0.002102
49.744355,-0.002363,-0.008397,0.010199
49.774347,0.013803,-0.009197,0.011484
49.804338,0.020591,0.011610,0.017625
49.844327,0.033437,-0.005607,0.010609
49.874318,0.036594,-0.012573,0.014248
49.904309,0.034662,-0.011447,0.014020
49.944298,0.002741,0.005459,0.014842
49.974290,0.000802,-0.000971,0.009133
50.004281,0.004331,-0.000711,0.003081
50.044270,0.018994,0.005213,0.010614
50.074261,0.016645,-0.003767,0.014301
50.104253,0.020292,-0.017140,0.007116
50.144241,0.028299,0.006874,0.007223
50.174232,0.037313,-0.006818,0.002751
50.204224,-0.008234,-0.007844,0.001384
50.244213,-0.027782,0.027712,0.013670
50.274204,0.014582,0.028875,0.014581
50.304195,0.055853,-0.008092,0.006936
50.344184,0.003619,-0.022346,0.015067
50.374175,-0.042336,0.041019,0.023202
50.404167,-0.010889,0.040469,0.012272
50.444156,0.012839,-0.018787,-0.010679
50.474147,-0.007340,-0.012434,0.005126
50.504138,-0.009360,0.028659,0.008312
50.544127,-0.001131,0.018004,0.008974
50.574118,0.000332,-0.009595,0.007246
50.604110,0.004519,0.002307,0.003366
50.644098,0.001163,0.015360,0.009211
50.674090,-0.012988,0.000119,0.008347
50.704081,-0.004586,-0.003164,0.009541
50.744070,0.000545,0.009640,0.004974
50.774061,0.006308,0.002116,-0.006294
50.804053,-0.007380,-0.003209,0.001217
50.844041,-0.018589,-0.004570,-0.002674
50.874033,-0.030762,-0.002532,0.001359
50.904024,0.010164,0.002720,0.010518
50.944013,-0.012526,0.007643,0.007281
50.974004,0.012366,-0.001959,0.007505
51.003996,-0.001280,0.009027,0.004691
51.043984,-0.005812,0.010546,0.006162
51.073976,0.015292,-0.013184,0.007066
51.103967,0.000370,-0.005674,0.006037
51.143956,0.001254,0.002875,0.012677
51.173947,0.001599,0.001485,0.012820
51.203939,0.004530,-0.002688,0.007049
51.243927,0.016733,-0.000893,0.009615
51.273922,0.016332,-0.012621,0.012248
51.303913,0.022614,-0.010793,0.008010
51.343902,0.000321,-0.001792,0.005915
51.373893,0.001870,-0.019286,0.001912
51.403885,0.012369,-0.035913,-0.003488
51.443873,0.009798,0.008005,0.007456
51.473865,0.018538,-0.005325,0.008884
51.503856,0.009345,-0.011273,0.009917
51.543845,-0.019349,0.007992,-0.000199
51.573836,-0.006349,-0.003821,0.003865
51.603828,0.019065,-0.006580,0.011593
51.643816,-0.006035,0.008949,0.013892
51.673808,0.024017,-0.002665,0.008206
51.703799,0.017712,-0.013645,-0.000462
51.743788,0.017292,-0.012362,-0.013232
51.773779,0.023399,0.004403,-0.012957
51.803771,0.030499,0.003105,-0.005430
51.843759,0.039745,0.007168,-0.000899
51.873751,0.042375,0.003122,0.005149
51.903742,0.027488,0.000481,0.008086
51.943731,0.018231,-0.000046,0.006185
51.973722,0.032746,-0.000068,0.012616
52.017461,0.015599,0.006567,0.015764
52.047453,0.002345,-0.004284,0.010586
52.077444,0.015312,-0.002592,0.004363
52.117433,0.030108,-0.021453,-0.003124
52.147424,-0.008356,-0.032916,0.002766
52.177415,-0.016697,-0.016347,0.004758
52.217404,-0.032639,0.016397,0.011885
52.247396,-0.028905,-0.030047,0.002750
52.277387,-0.006461,-0.027041,0.004787
52.317377,-0.010319,-0.002432,0.007275
52.347368,-0.012276,0.001824,0.008201
52.377359,-0.014574,0.009509,0.010162
52.417348,0.020517,-0.004566,0.012497
52.447339,0.034355,-0.013526,0.010787
52.477331,0.019657,-0.006885,0.007742
52.507321,0.020178,-0.001205,0.007273
52.537312,0.014903,-0.000013,0.008967
52.577301,-0.012916,-0.007611,0.004397
52.607292,-0.026041,-0.009510,-0.000171
52.637284,-0.034086,0.006815,0.004302
52.677273,-0.038259,0.003842,0.002366
52.707264,-0.022003,-0.009606,0.001531
52.737255,-0.011597,0.001521,0.007461
52.777244,-0.009512,0.023640,0.013180
52.807235,-0.022016,0.015557,0.010991
52.837227,0.011281,0.017868,0.008464
52.877216,0.012910,0.013281,0.001172
52.907207,0.017748,0.007388,-0.000121
52.937198,0.010432,0.026849,0.008148
52.977187,0.011226,0.027203,0.010520
53.007179,0.016909,0.005904,0.009069
53.037170,0.022151,0.010995,0.012057
53.077159,0.013427,0.011432,0.010164
53.107150,0.011557,0.001591,0.002633
53.137142,0.008453,0.002788,0.006280
53.177130,0.002872,0.000898,0.011106
53.207122,0.011769,0.001785,0.010096
53.237113,0.000782,0.011997,0.008132
53.277098,0.002487,-0.002908,0.001700
53.307089,-0.005646,0.006059,0.008155
53.337080,0.002490,-0.002692,0.002956
53.377069,0.002599,-0.010823,0.009236
53.407061,0.007944,-0.002293,0.009500
53.437052,0.000770,-0.005409,0.010935
53.477041,0.000145,-0.000378,0.005122
53.507032,0.002434,0.000699,0.007673
53.537023,0.014961,-0.008515,0.006075
53.577012,0.005053,0.000307,0.007620
53.607004,0.016426,-0.001369,0.004304
53.636995,0.006799,0.005984,0.005390
53.676984,0.029717,0.000099,0.008253
53.706975,0.022487,-0.003411,0.007015
53.736966,0.010336,0.002664,0.006183
53.776955,0.019632,0.000717,0.010081
53.806947,0.021461,0.003150,0.010163
53.836938,0.016290,0.005631,0.007504
53.876927,0.025974,0.004894,0.010696
53.906918,0.016191,0.006147,0.004398
53.936909,0.007415,0.001991,0.009783
53.976898,0.018262,0.003916,0.005910
54.006890,0.016128,-0.003635,0.007361
54.036881,0.020607,0.009074,0.010579
54.076870,0.015303,0.001403,0.004983
54.106861,0.010067,-0.000322,0.007271
54.136852,0.012348,0.003970,0.004918
54.176841,0.011626,-0.001887,0.004164
54.206833,0.002238,0.001355,0.010137
54.236824,0.004621,0.003481,0.011182
54.276812,0.001724,0.003261,0.007440
54.306803,0.006008,-0.004839,0.004319
54.336794,0.012580,-0.010125,0.010874
54.376783,0.004067,0.005497,0.011140
54.406775,-0.001128,-0.000497,0.007460
54.436766,0.008865,-0.007464,0.005465
54.476755,0.011318,0.002467,0.006268
54.506746,0.008972,0.001350,0.005699
54.536737,0.008417,-0.007654,0.008766
54.576726,0.013116,0.004295,0.009173
54.606717,0.011120,-0.001684,0.007910
54.636709,0.018863,-0.007829,0.006583
54.676698,0.015024,0.002918,0.010121
54.706689,0.008986,0.005564,0.006495
54.736680,0.016848,0.001344,0.005964
54.776669,0.011570,-0.002803,-0.001173
54.806660,0.023931,0.002147,0.001590
54.836652,0.002464,0.024055,0.010267
54.876641,0.011141,0.008584,0.003131
54.906632,0.024924,-0.004595,0.008770
54.936623,0.014123,0.012484,0.007735
54.976612,0.012820,-0.001506,0.007534
55.006603,0.030402,-0.014918,0.007452
55.036595,0.021819,-0.005569,0.005432
55.076583,0.013967,0.008417,0.004593
55.106575,0.012529,-0.003676,0.007691
55.136566,-0.000459,-0.006642,0.004220
55.176555,0.017488,0.006515,0.004637
55.206546,0.011551,-0.001510,0.007541
55.236538,0.014692,-0.005675,0.003968
55.276526,0.011156,0.002741,0.007922
55.306519,0.003832,0.006065,0.010135
55.336510,0.017593,0.003298,0.008496
55.376499,0.014077,0.003487,0.011840
55.406490,0.013707,-0.004074,0.010174
55.436482,0.019383,-0.001611,0.011145
55.476470,0.016739,0.001343,0.010603
55.506462,0.012569,-0.005753,0.011157
55.536453,0.009664,-0.002683,0.007066
55.576442,0.012777,0.002389,0.000542
55.606433,-0.001176,0.009445,0.005180
55.636425,0.014080,0.025778,0.002032
55.676413,0.006310,0.007795,0.012432
55.706405,0.009271,0.012939,0.015382
55.736396,0.016437,0.016551,0.005743
55.776385,0.018764,0.011457,0.008898
55.806376,0.009186,0.002921,0.006830
55.836368,0.010240,-0.001775,0.008147
55.876356,0.012481,0.011971,0.008105
55.906348,0.005559,0.003946,0.009013
55.936339,-0.000145,-0.004728,0.007894
55.976328,-0.003578,0.008182,0.013537
56.016318,0.008971,-0.001044,0.007759
56.046309,0.007968,-0.003745,0.007246
56.076301,0.003696,-0.000177,0.009603
56.116289,0.005171,-0.007077,0.006613
56.146281,0.001040,-0.003723,0.008196
56.176272,-0.004299,-0.003446,0.006881
56.216261,-0.008942,-0.000834,0.005189
56.246252,-0.001384,-0.002654,0.008243
56.276244,-0.003641,-0.005047,0.009862
56.316232,0.001877,-0.007009,0.011087
56.346224,0.002820,0.003389,0.009085
56.376215,0.009799,0.006383,0.011380
56.416204,0.001465,-0.009465,0.009804
56.446195,0.016267,0.002370,0.009467
56.476187,0.013663,0.011668,0.006343
56.516175,-0.004169,-0.003227,0.011243
56.536167,0.005053,0.000745,0.014184
56.576156,0.009122,-0.002770,0.010915
56.606147,0.005185,0.004209,0.009600
56.636139,0.005509,0.012871,0.006887
56.676128,0.010141,-0.000525,0.007136
56.706119,0.007627,-0.001835,0.006963
56.736110,0.002244,0.016351,0.007498
56.776099,0.017260,-0.002157,0.006951
56.806090,0.013382,0.005217,0.011940
56.836082,0.005846,0.006310,0.011984
56.876071,0.013274,0.001178,0.007343
56.906062,0.005552,0.002258,0.007591
56.936053,0.002630,-0.001474,0.009270
56.976042,0.012834,-0.005528,0.005737
57.006033,0.005910,0.004644,0.007143
57.036025,0.001060,-0.004891,0.008146
57.076013,0.001511,-0.007991,0.012756
57.106005,0.004537,0.005661,0.009338
57.135996,0.000306,-0.001307,0.010622
57.175985,0.013626,-0.014851,0.009632
57.205976,0.005807,-0.005704,0.011238
57.235968,0.005796,0.004697,0.010581
57.275956,-0.000912,-0.010444,0.007429
57.305951,-0.001408,-0.006282,0.002186
57.335942,0.000499,-0.004484,0.002819
57.375931,-0.000976,0.002975,-0.002926
57.405922,-0.005270,0.004811,0.005374
57.435914,0.008175,0.004633,0.007678
57.475902,0.005053,0.005017,0.008430
57.505894,0.018442,0.020055,0.010651
57.535885,0.017126,0.024404,0.005783
57.575874,-0.003068,0.009870,0.008502
57.605865,-0.017615,0.006837,-0.000202
57.635857,0.000774,0.010581,-0.004681
57.675845,0.001071,0.007240,0.004803
57.705837,0.001827,0.024208,0.010378
57.735828,0.012196,0.016224,0.008191
57.775817,-0.004682,0.013234,0.003240
57.805808,0.003108,0.011620,0.000086
57.835800,0.020154,-0.004165,0.005887
57.875788,0.011021,0.014504,0.006867
57.905780,0.011245,0.015427,-0.000778
57.935771,0.013520,0.005095,-0.000525
57.975760,0.007012,0.003454,-0.001166
58.005751,0.036991,0.000505,0.000244
58.035743,0.034860,-0.001266,0.007549
58.075731,0.042595,-0.003625,0.022169
58.105722,0.025564,0.004525,0.010408
58.135714,0.030468,-0.010137,0.003895
58.175703,0.041649,-0.011845,0.004408
58.205694,0.010452,0.001200,0.006930
58.235685,0.025835,-0.001758,0.001116
58.275674,0.025361,0.000675,-0.003778
58.305666,0.021633,-0.005383,-0.001977
58.335657,0.009478,-0.013719,0.006296
58.375645,0.024117,0.004161,0.006852
58.405638,0.031523,-0.002653,0.009382
58.435628,0.026751,-0.003398,0.007205
58.475617,0.024671,-0.002758,0.007807
58.505609,0.018724,0.001681,0.008483
58.535600,0.004967,-0.002091,0.007361
58.575588,0.004616,-0.009494,-0.005703
58.605581,0.002022,-0.010005,0.006170
58.635571,-0.008807,0.003614,0.007611
58.675560,-0.002932,0.003629,0.002220
58.705552,0.008990,-0.004497,0.009488
58.735543,-0.003637,-0.003417,0.017312
58.775531,-0.001477,-0.003489,0.011379
58.805524,-0.008735,0.013052,0.013528
58.835515,-0.029802,-0.000113,0.001351
58.875503,-0.004302,-0.021499,-0.007468
58.905494,-0.000236,-0.009348,-0.007407
58.935486,0.020916,0.001720,-0.005863
58.975475,0.031389,-0.004250,0.001266
59.005465,0.040084,0.003872,0.009781
59.035458,0.001144,0.006164,0.012413
59.075446,0.004265,-0.006149,0.013624
59.105437,0.012158,-0.000321,0.017929
59.135428,0.033330,0.014802,0.025388
59.175418,0.030268,0.011742,0.015096
59.205408,0.028890,-0.006929,-0.000447
59.235401,0.008737,-0.011389,-0.006057
59.275389,0.109417,0.018502,-0.013834
59.305380,0.079906,0.060436,-0.019805
59.335371,0.047017,0.016343,-0.016660
59.375360,0.039322,0.014081,-0.004635
59.405351,-0.011472,0.052976,0.000497
59.435343,-0.003416,0.002975,0.016172
59.475331,0.012125,-0.001163,0.011099
59.505323,-0.011003,-0.009177,-0.003678
59.535314,0.020288,-0.019005,-0.016255
59.575303,0.032619,0.000835,-0.019976
59.605294,-0.028247,-0.028086,-0.016815
59.635285,0.004601,-0.045081,-0.012928
59.675274,0.021757,0.005706,-0.004956
59.705265,0.026584,-0.005053,0.001139
59.735257,0.037915,-0.023600,0.000805
59.775245,0.033897,0.008205,0.013141
59.805237,-0.009193,0.019773,0.024826
59.835228,0.003659,-0.006798,0.022656
59.875217,0.016182,0.001259,0.020418
59.905208,0.002539,0.023133,0.021984
59.935200,0.000565,0.011310,0.009880
59.975188,0.018011,0.014268,0.002376
60.017678,0.019680,0.011917,0.005346
60.047670,0.024174,0.009834,0.005212
60.077661,0.027229,0.014793,0.010041
60.117650,0.010765,0.008001,0.014277
60.147641,0.010599,-0.008104,0.019095
60.177633,-0.003437,0.005017,0.013486
60.217621,-0.001072,0.002761,0.014234
60.247613,-0.009134,-0.018380,0.008953
60.277604,0.002146,-0.008220,0.011825
60.317589,-0.015864,0.001089,0.006074
60.347581,-0.016463,0.001815,0.007636
60.377572,-0.018534,-0.000328,0.006953
60.417561,-0.011370,-0.009755,0.005386
60.447552,0.004971,-0.005164,0.009906
60.477544,-0.007948,-0.005392,0.011101
60.507533,-0.003266,0.001185,0.017900
60.537524,-0.007079,0.000970,0.014251
60.567516,-0.001038,-0.003651,0.016830
60.607504,-0.012718,-0.002557,0.011097
60.637496,-0.008563,-0.001357,0.006401
60.667487,-0.002479,-0.005521,0.006036
60.707476,-0.005560,-0.005335,0.006025
60.737467,-0.002585,-0.006378,0.007330
60.767459,-0.009723,-0.002322,0.009996
60.807447,0.003232,-0.002970,0.010604
60.837439,0.012722,-0.000647,0.014712
60.867430,0.000394,-0.000227,0.013932
60.907419,0.006993,0.000545,0.010201
60.937410,0.004330,-0.012582,0.007487
60.967402,0.005314,0.000268,0.007452
61.007390,-0.003904,0.010631,0.007833
61.037382,0.007269,-0.013670,0.004275
61.067373,0.005821,-0.006355,0.003103
61.107362,-0.000942,0.005531,0.007834
61.137353,0.001973,-0.001089,0.009916
61.167344,-0.001590,-0.004590,0.010610
61.207333,0.006788,0.002087,0.009608
61.237324,-0.003859,0.009495,0.009287
61.267316,-0.006193,0.005384,0.006560
61.307307,0.006954,-0.003212,0.004755
61.337299,0.004986,0.000223,0.009057
61.367290,-0.004512,0.010677,0.006767
61.407279,0.000790,-0.004626,0.007678
61.437270,0.003491,-0.000582,0.006250
61.467262,0.007937,0.003418,0.007302
61.507250,-0.000121,-0.003608,0.007685
61.537242,0.014424,-0.014797,0.000658
61.567233,0.016990,-0.016730,0.000213
61.607222,-0.002837,0.007808,0.012416
61.637213,0.004789,-0.008172,0.004841
61.667204,-0.002283,-0.013400,0.004034
61.707193,-0.000141,-0.020431,0.007662
61.737184,-0.002271,-0.006650,0.014528
61.767176,-0.004859,0.007688,0.017975
61.807164,0.012872,-0.009416,0.018145
61.837156,-0.004110,0.002600,0.017165
61.867147,0.008880,-0.004194,0.020647
61.907136,0.012405,0.019697,0.023264
61.937127,-0.023258,0.015026,0.028895
61.967119,-0.041709,-0.012516,0.022668
62.007107,-0.015752,0.010902,0.025194
62.037099,-0.056979,0.003691,0.033347
62.067090,-0.041254,-0.010924,0.041162
62.107079,-0.027281,0.012913,0.033569
62.137070,0.004585,0.019373,0.015500
62.167061,0.036326,-0.016726,0.010212
62.207050,-0.070913,-0.031790,0.036149
62.237041,-0.089822,0.010986,0.030099
62.267033,-0.048620,0.023735,-0.003731
62.307021,0.025951,-0.010481,-0.003891
62.337013,0.009085,-0.025136,0.010807
62.367004,0.001443,-0.004764,0.026944
62.406993,0.018260,0.052531,0.013807
62.436984,0.003744,-0.008303,-0.005790
62.466976,0.045919,-0.034216,-0.011176
62.506964,0.039212,0.049142,0.006571
62.536956,0.043975,0.023403,0.015900
62.566947,0.063562,-0.014260,0.010763
62.606936,0.035042,-0.017226,0.004496
62.636927,0.062772,0.016641,-0.017834
62.666918,0.027383,0.015290,0.013335
62.706907,-0.021385,-0.015980,0.053674
62.736898,-0.055856,-0.034627,0.064571
62.766890,-0.072256,-0.064906,0.069063
62.806878,0.058538,-0.005869,0.022450
62.836870,0.063981,0.022560,-0.007894
62.866861,0.062733,0.007404,-0.011015
62.906850,-0.007432,-0.007553,-0.002618
62.936841,-0.016384,-0.008136,0.018545
62.966833,0.046845,-0.016067,0.034064
63.006821,0.041325,-0.019312,0.026731
63.036813,0.025820,-0.012930,0.017291
63.066804,0.010949,0.003504,0.003685
63.106793,0.019625,0.009530,0.007383
63.136784,0.040093,-0.011241,0.003577
63.176773,0.029969,0.005927,0.010048
63.206764,0.013355,0.016697,0.017240
63.236755,-0.007110,0.004300,0.019389
63.276744,-0.019475,0.010399,0.010872
63.306732,0.011587,0.013280,0.007929
63.336724,0.024402,0.002605,0.007336
63.376712,0.006980,-0.004239,0.016572
63.406704,-0.003256,0.002394,0.023417
63.436695,0.020035,0.000827,0.019059
63.476684,0.041976,-0.016006,0.004495
63.506675,0.026017,-0.005413,-0.010961
63.536667,0.019109,0.033645,-0.005011
63.566658,-0.011493,0.023541,0.012463
63.606647,-0.007135,-0.000151,0.029401
63.636638,0.001450,0.005284,0.035258
63.676627,0.001221,-0.016083,0.007211
63.706618,0.023224,-0.012510,-0.015933
63.736609,0.024372,-0.004904,-0.047640
63.776598,0.043351,0.007975,-0.052305
63.806589,0.034634,0.023015,-0.002096
63.836581,0.003083,0.019055,0.028178
63.876569,0.001270,0.008093,0.062356
63.906561,-0.004075,0.008012,0.042204
63.936552,-0.012573,0.013532,0.002108
63.976541,0.020525,0.029859,-0.026835
64.009034,0.044730,0.016243,-0.012185
64.049022,0.024485,0.001508,0.018726
64.079014,-0.005961,0.007692,0.044077
64.109005,-0.000695,0.009790,0.056976
64.148994,0.009449,-0.014931,0.033414
64.178985,0.020230,-0.007625,0.002111
64.208977,0.037875,-0.000985,-0.012884
64.248965,0.011965,-0.001439,-0.012956
64.278957,-0.023739,0.002464,0.001543
64.308948,-0.005581,0.010223,0.026994
64.348936,0.016863,-0.012340,0.035439
64.378928,-0.000770,-0.020635,0.027467
64.408919,-0.005772,-0.004535,0.011044
64.448908,-0.007913,0.016592,-0.004790
64.478899,0.002274,0.012108,-0.005084
64.508891,0.012778,0.003109,0.004059
64.538880,0.015206,0.005201,0.007701
64.568871,0.028520,0.010704,0.019459
64.608860,0.028788,0.007775,0.012335
64.638851,0.012150,0.017874,-0.003003
64.668843,0.021102,0.029798,-0.020408
64.698834,0.018253,0.017358,-0.013254
64.738822,0.007785,0.010612,-0.007881
64.768814,0.009684,0.024588,0.011998
64.798805,0.003363,0.004099,0.029171
64.838794,-0.000202,-0.000418,0.041817
64.868785,-0.019238,0.019142,0.034825
64.898777,-0.002016,0.026682,0.021474
64.938765,0.024555,0.001033,-0.003127
64.968757,0.016186,0.001196,-0.005544
64.998748,0.022445,0.008333,0.001547
65.038737,0.009105,0.001355,0.005042
65.068728,0.008908,0.007293,0.002013
65.108717,0.004391,-0.007785,0.003555
65.138708,0.019984,-0.014043,0.007808
65.168700,-0.002470,-0.000064,0.004244
65.198691,-0.008088,0.003476,-0.012175
65.238680,0.005944,0.018542,-0.003661
65.268671,0.024265,0.012621,0.014889
65.308660,0.029904,-0.025449,0.020184
65.338651,0.030101,-0.010687,0.019160
65.368643,0.013750,-0.001693,0.013891
65.408631,0.006409,0.001206,0.003091
65.438622,0.014484,-0.007655,-0.007566
65.468614,0.009453,-0.009731,-0.016602
65.508603,0.020054,-0.008593,-0.026232
65.538594,0.014176,0.001034,-0.021487
65.568585,0.025571,0.008324,-0.007118
65.608574,0.010890,-0.009734,0.017002
65.638565,0.014972,-0.004473,0.021346
65.668557,0.011312,0.000207,0.011727
65.708545,0.027506,0.002525,0.004319
65.738537,0.001894,0.010768,-0.007097
65.768528,0.010473,0.004006,0.001040
65.798520,0.016396,-0.000919,0.001604
65.838508,0.025828,-0.004606,-0.009056
65.868500,0.022695,-0.003442,-0.007678
65.908488,0.015804,-0.002222,0.007159
65.938480,-0.001603,-0.000215,0.016925
65.968471,0.014866,-0.003138,0.024688
66.008460,0.010456,-0.013783,0.020202
66.038451,-0.001869,-0.000050,0.003855
66.068443,0.015274,0.002853,-0.014275
66.108431,0.019297,-0.001872,-0.007131
66.138423,0.006489,-0.003814,0.002682
66.168414,0.005646,-0.009590,0.012046
66.208403,-0.009720,0.001316,0.010909
66.238394,0.014829,-0.007407,0.002447
66.268385,0.009028,-0.020916,-0.011319
66.308374,0.035043,-0.006767,-0.005601
66.338365,0.024031,-0.011427,0.000412
66.368357,0.016304,-0.016218,0.012169
66.408345,0.024537,-0.008944,0.013431
66.438337,0.004570,-0.004581,0.005106
66.468328,0.012098,0.003923,0.002094
66.508317,0.029546,-0.002656,-0.000399
66.538308,0.031094,-0.004689,0.003443
66.568300,0.026690,0.002872,0.004420
66.608288,-0.011955,0.019905,0.013192
66.638280,0.002677,0.009333,0.019903
66.668271,0.018499,-0.007632,0.023419
66.708260,0.035670,-0.006674,0.019114
66.738251,0.052298,0.003708,0.016437
66.768243,0.016629,0.004001,0.014242
66.808231,-0.011327,0.009958,0.024125
66.838223,-0.023636,0.015868,0.015668
66.868214,-0.001310,0.009949,0.014616
66.908203,0.009050,-0.006600,0.008779
66.938194,0.024919,-0.009568,0.001915
66.968185,0.027900,0.013789,0.003872
67.008174,0.034431,0.022531,0.011966
67.038165,0.002604,0.026383,0.018792
67.068157,-0.016817,0.017009,0.016271
67.108145,-0.003226,0.004183,0.014289
67.138137,-0.010472,0.008293,0.019790
67.168128,-0.030615,0.000882,0.009582
67.208117,0.007219,0.006408,0.017211
67.238108,0.021156,0.009351,0.018977
67.268100,0.046358,0.002715,0.019245
67.308092,0.014939,0.001139,0.004035
67.338084,-0.060960,0.007524,-0.005343
67.368075,-0.057619,-0.010260,0.001079
67.408064,0.009317,-0.028223,-0.003787
67.438055,0.086123,-0.045311,0.015794
67.468047,-0.044422,-0.022095,-0.034014
67.508035,0.012127,0.027660,-0.002417
67.538027,0.015625,-0.017480,0.006818
67.568018,-0.000749,-0.049361,0.014569
67.608007,0.016362,-0.015268,0.008843
67.637998,-0.024968,0.010999,-0.001348
67.667989,0.017839,-0.006197,0.007163
67.707978,0.006275,-0.016746,0.007365
67.737969,-0.006279,0.004284,0.010070
67.767961,0.002704,-0.002581,0.004322
67.807949,0.020151,-0.008264,-0.005437
67.837941,-0.004791,0.009466,-0.003422
67.867932,-0.022835,0.010615,-0.003884
67.907921,0.015262,-0.012082,0.000290
67.937912,0.017291,0.000315,-0.001722
67.967904,0.009637,0.001325,0.005421
68.010394,0.034893,-0.001897,0.014281
68.050383,0.025389,0.028073,0.009598
68.080374,0.011798,-0.001049,0.003086
68.110366,0.021733,-0.009750,0.006792
68.150354,0.015007,0.012226,0.005800
68.180346,0.007257,-0.010528,-0.000109
68.210337,0.013079,-0.016386,-0.002783
68.250326,0.007823,0.011886,0.006901
68.280317,-0.018595,0.008906,0.009946
68.310311,0.007491,-0.001699,0.008489
68.350300,0.023359,-0.005149,0.011403
68.380291,0.003345,0.001211,0.007832
68.410283,0.009661,-0.000027,0.005994
68.450271,0.006979,-0.009011,0.015021
68.480263,-0.002361,0.000289,0.011329
68.510253,0.003681,-0.002730,0.010622
68.540245,0.004273,-0.006577,0.005724
68.570236,0.000156,0.000607,0.009477
68.610225,0.006610,-0.005988,0.006009
68.640216,0.005291,-0.014189,0.006871
68.670208,0.011542,-0.010167,0.011750
68.710196,0.002296,-0.008760,0.006850
68.740188,0.000173,-0.008693,0.008625
68.780176,0.005037,-0.009575,0.004185
68.810168,0.004723,-0.004123,0.002271
68.840159,0.007219,-0.009138,0.003912
68.880148,0.012879,-0.012649,0.005971
68.910139,-0.001896,-0.002873,0.010552
68.940130,-0.001351,-0.006605,0.009481
68.980119,0.017226,-0.004801,0.006747
69.010110,0.000752,0.005101,0.009709
69.040102,0.004639,-0.006508,0.013079
69.080090,0.008540,-0.005996,0.009882
69.110082,0.001901,0.009501,0.011688
69.140073,-0.001253,0.018883,0.014618
69.180062,0.009448,0.031778,0.011115
69.210053,0.025295,0.033009,0.031407
69.240045,0.046699,0.032425,0.025862
69.280033,0.017563,0.030116,0.034082
69.310018,-0.040273,0.015025,0.025710
69.340009,-0.065508,-0.005342,0.021830
69.379998,0.011981,0.021243,0.018754
69.409989,0.062545,0.016488,0.015342
69.439981,0.049005,-0.014931,0.004428
69.479969,-0.028973,0.011607,0.001660
69.509961,-0.010744,0.035419,-0.000472
69.539952,0.007530,-0.000333,-0.002302
69.579941,0.062471,-0.036404,-0.007130
69.609932,0.026415,-0.030841,-0.007025
69.639924,0.020344,-0.011135,-0.032524
69.679912,0.054349,-0.007715,-0.049100
69.709904,0.059179,-0.027840,-0.077734
69.739895,0.083973,-0.014489,-0.051746
69.779884,0.068402,0.021921,0.039654
69.809875,-0.020690,-0.011388,0.083257
69.839866,-0.068375,0.001417,0.108043
69.879855,-0.071350,0.044049,0.063764
69.909846,-0.046671,0.008543,-0.009163
69.939838,0.015722,0.008891,-0.056092
69.979826,-0.005643,0.035898,-0.089498
70.009818,-0.003858,0.028519,-0.072896
70.039809,0.067120,0.006048,-0.019429
70.079798,0.017003,-0.020396,0.016633
70.109789,-0.051681,-0.007419,0.025187
70.139781,-0.060751,0.024583,0.026281
70.179769,-0.035925,0.023956,0.030944
70.209761,-0.021848,0.000502,0.011783
70.239752,0.004422,0.020208,-0.011659
70.279741,-0.012818,0.052524,-0.029091
70.309731,-0.011892,0.041261,-0.028239
70.339723,0.003434,0.025900,-0.025003
70.379711,0.024790,0.014739,0.015178
70.409703,0.009255,0.007245,0.030335
70.439694,0.018398,0.015025,0.030518
70.479684,0.019231,0.015777,0.016100
70.509675,0.058399,0.018512,0.014880
70.539666,0.050788,0.017321,0.001051
70.579654,0.002619,0.013742,-0.006727
70.609647,-0.001552,0.015936,0.007987
70.639637,-0.005111,0.012813,0.017730
70.679626,0.004686,-0.008958,0.025813
70.709618,-0.011883,0.000787,0.018612
70.739609,-0.009721,0.016926,0.003553
70.779597,-0.002042,0.009983,-0.006542
70.809590,-0.006313,0.002564,-0.004605
70.839581,0.022547,0.001462,-0.001946
70.879569,-0.004869,-0.009552,0.007000
70.909560,0.013683,-0.002557,0.009737
70.939552,-0.010606,-0.002551,0.024048
70.979540,-0.024559,-0.005802,0.041496
71.009533,-0.007017,-0.008853,0.039194
71.039524,-0.015912,-0.005267,0.022459
71.079512,-0.001353,-0.001110,0.000758
71.109503,0.003137,-0.006455,-0.004879
71.139495,0.023581,-0.007098,-0.007321
71.179484,0.017849,-0.010916,-0.013136
71.209475,0.023000,-0.011069,-0.010313
71.239467,0.012970,-0.001238,-0.002443
71.279456,0.027645,-0.000999,0.009391
71.309446,0.014686,-0.002756,0.014263
71.339437,0.001195,0.012396,0.017562
71.379426,-0.005514,0.017206,0.023341
71.409418,-0.006417,0.007665,0.029411
71.439409,0.016179,-0.003549,0.029508
71.479398,-0.002664,0.001091,0.012214
71.509389,-0.010919,0.024329,-0.005851
71.539380,-0.007712,0.019019,-0.012523
71.579369,0.020975,0.007924,-0.012179
71.609361,0.011706,0.006780,0.003670
71.639352,0.012583,-0.002295,0.018811
71.679341,-0.007100,-0.010177,0.022716
71.709332,-0.004449,0.009610,0.015622
71.739323,0.014270,0.002006,0.013114
71.779312,0.021971,-0.005690,-0.005696
71.809304,0.015223,0.007722,-0.006683
71.839295,-0.003504,0.010874,-0.000572
71.879284,-0.000347,-0.001984,0.006702
71.909275,0.026971,-0.005362,0.016238
71.939267,0.018829,-0.012526,0.024238
71.979255,-0.003376,-0.002377,0.013738
72.011747,0.028868,0.009292,0.004632
72.041738,-0.014075,0.008685,-0.006751
72.081727,0.011129,-0.002094,-0.008665
72.111719,-0.001966,0.003108,0.003793
72.141710,-0.010486,0.002763,0.019191
72.181699,-0.007026,-0.000944,0.021266
72.211690,0.020852,0.008254,0.020402
72.241681,0.015336,0.003720,0.013368
72.281670,0.024462,0.002500,0.008305
72.311663,-0.002259,0.011982,0.006631
72.341654,0.007349,0.007560,0.009050
72.381643,0.013175,-0.006303,0.010342
72.411634,0.000828,-0.007587,0.013609
72.441626,0.011956,0.006406,0.003031
72.481614,-0.008228,-0.000162,0.005812
72.511606,0.006008,-0.001456,0.008260
72.541595,0.025408,-0.003047,0.013647
72.571587,0.008859,-0.004003,0.020138
72.601578,0.007281,-0.001704,0.009168
72.641567,-0.018568,0.011832,0.010839
72.671558,-0.002821,0.001344,0.009012
72.701550,0.010256,-0.003987,0.009632
72.741538,0.004655,-0.007075,0.003657
72.771530,0.019734,-0.001561,-0.005470
72.801521,0.029633,-0.007021,-0.002178
72.841510,0.009599,0.005590,0.000673
72.871501,0.011167,0.012020,0.008001
72.901493,0.006728,-0.007434,0.015452
72.941481,0.010001,-0.005662,0.018969
72.971473,-0.004835,0.000060,0.017823
73.001464,-0.016274,0.002525,0.012004
73.041453,-0.002788,0.010002,-0.001350
73.071444,0.015108,0.010319,-0.008024
73.101436,0.016238,0.002046,-0.014201
73.141425,0.019286,0.002073,0.004901
73.171416,-0.011822,0.006087,0.018439
73.201407,-0.007795,-0.000038,0.021789
73.241396,0.004261,0.004147,0.006823
73.271388,0.010737,0.001445,0.004067
73.301379,0.025971,0.001587,0.001662
73.341368,0.005922,0.004250,0.007973
73.371359,-0.001439,0.002840,0.012666
73.401351,-0.003977,0.005667,0.014232
73.441339,0.003654,0.004235,0.009037
73.471331,-0.009449,0.010970,0.007956
73.501322,-0.028808,-0.000685,0.012770
73.541311,-0.015610,-0.001337,0.022771
73.571302,-0.010693,0.004972,0.026235
73.601294,0.009428,0.000663,0.030432
73.641282,-0.052723,-0.010147,0.044534
73.671274,-0.014131,-0.002130,0.029507
73.701265,0.031762,0.000860,0.016808
73.741254,-0.056308,-0.014722,0.002657
73.771245,0.020675,-0.008748,-0.031769
73.801237,0.027937,0.006304,-0.041796
73.841225,0.021473,0.004412,0.001848
73.871217,-0.016232,-0.014652,0.026096
73.901208,-0.019135,-0.008376,0.046192
73.941197,-0.082275,-0.003680,0.041831
73.971188,-0.037817,0.003877,0.022296
74.001180,-0.003482,0.004463,-0.006533
74.041168,0.029096,0.008653,-0.028062
74.071160,0.034765,0.007315,-0.031598
74.101151,0.047258,0.001787,0.002518
74.141140,0.042247,-0.027328,0.029298
74.171131,0.082392,-0.027351,0.030486
74.211120,-0.021442,-0.007376,0.004828
74.241111,0.026126,0.000239,-0.012701
74.271103,0.027501,-0.011718,-0.043248
74.311091,0.083402,-0.007354,-0.071144
74.341083,0.079966,-0.001193,-0.064087
74.371074,0.082732,-0.010134,-0.053626
74.411063,0.013408,0.013904,-0.012833
74.441054,0.013921,0.026422,0.005406
74.471046,-0.002765,-0.001219,0.027932
74.501037,0.003772,-0.000666,0.051484
74.541026,-0.003738,-0.007690,0.059807
74.571017,0.010485,-0.013722,0.041465
74.611006,-0.003967,0.026440,0.022750
74.640997,-0.014260,0.023560,0.030555
74.670989,0.000936,-0.023323,0.016581
74.710977,0.087875,-0.023139,-0.021573
74.740969,0.066843,-0.006568,-0.042718
74.770960,-0.009218,0.005260,-0.027511
74.810949,-0.031570,-0.009783,0.017321
74.840940,0.035914,-0.045268,0.040489
74.870932,0.060862,-0.061193,0.021397
74.910920,0.015700,-0.010673,0.001934
74.940912,-0.016593,0.013724,0.001340
74.970903,-0.027712,0.018246,0.003061
75.010892,0.007774,-0.001241,0.020439
75.040883,-0.000299,-0.014098,0.033622
75.070875,-0.010366,-0.007506,0.025130
75.110863,0.001484,0.001348,0.030931
75.140855,-0.008777,-0.006829,0.028884
75.170846,-0.010477,-0.009169,0.025681
75.210835,-0.003385,-0.003417,0.003114
75.240826,-0.049800,-0.019381,0.012961
75.270818,-0.075670,-0.008191,0.015408
75.310810,-0.006744,0.016513,0.036473
75.340801,0.035394,-0.002786,0.000699
75.370792,0.038473,-0.021785,-0.014332
75.410781,0.004853,0.023605,-0.022913
75.440772,0.002418,0.017499,-0.009857
75.470764,0.020171,-0.020950,0.019058
75.510753,0.036089,-0.019993,0.030331
75.540744,-0.055099,0.005413,0.016892
75.570735,-0.036061,0.007969,0.006420
75.610724,-0.039558,0.003589,0.013327
75.640716,-0.011690,-0.008387,0.012462
75.670707,0.000972,-0.006018,0.011396
75.710696,-0.022893,0.024191,0.007216
75.740687,-0.009700,0.013947,0.018769
75.770678,0.005633,-0.017804,0.005155
75.810667,0.045668,-0.013679,0.010278
75.840659,0.024017,-0.008689,0.004797
75.870650,0.008222,-0.008229,0.016461
75.910639,-0.025389,-0.006704,0.019009
75.940630,-0.010564,0.004199,0.013201
75.970622,0.022958,0.003108,0.015121
76.011862,0.004675,-0.014948,0.009285
76.041853,-0.001122,-0.007805,0.008826
76.081842,-0.011043,0.001089,0.020585
76.111833,-0.011048,-0.003133,0.014870
76.141825,-0.017599,-0.006790,0.012471
76.181813,-0.001837,0.007503,0.006834
76.211805,0.013853,-0.004506,0.010644
76.241796,0.005344,-0.014327,0.017064
76.281785,-0.018434,-0.001883,0.017016
76.311773,0.004250,0.005902,0.018882
76.341765,0.008583,0.002823,0.012420
76.381753,0.004203,-0.003093,0.009901
76.411745,0.004298,0.004692,0.008162
76.441736,0.007374,-0.002442,0.007478
76.481725,-0.001419,-0.005530,0.007936
76.501719,0.004303,0.006795,0.009136
76.541706,-0.003112,0.002978,0.013165
76.571697,0.002895,-0.005561,0.013112
76.601689,-0.007735,0.003753,0.007300
76.641678,0.018836,0.009151,0.012498
76.671669,-0.005891,-0.008921,0.011078
76.701660,-0.006281,-0.003378,0.011549
76.741649,-0.004585,0.020259,0.004306
76.771641,-0.005309,-0.000898,0.006733
76.801632,0.008687,-0.012392,0.004916
76.841621,0.009309,0.002474,0.004113
76.871612,0.005596,0.000205,0.008040
76.901604,-0.006423,-0.006879,0.012307
76.941592,-0.008245,-0.012041,0.011230
76.971584,0.008082,-0.010209,0.008527
77.001575,0.012775,-0.009992,0.005890
77.041564,0.004840,-0.014850,0.005643
77.071555,-0.001081,-0.018056,0.006065
77.101547,0.006702,-0.022677,0.018613
77.141535,0.013724,-0.021673,0.001904
77.171527,0.000271,-0.008787,0.003163
77.201518,0.014597,0.001135,-0.000649
77.241507,0.015757,-0.007068,-0.009583
77.271498,0.025260,-0.018301,-0.018701
77.301490,-0.000441,0.007965,-0.004685
77.341478,0.010296,0.017675,-0.008555
77.371469,0.008140,0.028124,0.003848
77.401460,0.010635,-0.013297,0.002322
77.441450,0.012913,-0.016921,-0.000812
77.471440,0.018997,0.004383,-0.000161
77.501433,-0.000735,-0.000521,0.001924
77.541421,0.028161,-0.015373,-0.000628
77.571412,0.014612,-0.004882,0.004604
77.601403,0.010679,0.010058,0.001868
77.641393,0.000146,-0.007216,0.002513
77.671384,0.010931,-0.012528,0.001503
77.701375,0.007813,-0.007755,-0.000807
77.741363,0.004927,-0.015789,0.006202
77.771356,0.006371,-0.006018,0.007550
77.801346,0.010861,-0.007496,0.006322
77.841335,0.012133,-0.011574,0.008309
77.871327,-0.010571,-0.013133,0.005726
77.901318,0.004250,-0.012748,0.006472
77.941306,-0.015035,-0.007393,0.009053
77.971299,0.002963,-0.015519,0.003303
78.001289,-0.008378,-0.011550,0.008741
78.041278,0.006505,-0.017431,0.005002
78.071270,-0.002144,-0.012827,-0.013109
78.101261,-0.008598,0.008005,-0.015285
78.141250,0.005841,-0.007305,-0.002441
78.171242,-0.000432,-0.014057,0.016935
78.201233,-0.016756,-0.012786,0.025459
78.241221,0.010677,-0.014261,0.017524
78.271214,0.013451,-0.019345,0.014782
78.301205,-0.006666,-0.004612,0.013379
78.341194,0.016206,0.019374,0.002335
78.371185,-0.003934,0.019681,0.003577
78.401176,-0.007616,0.008319,0.003401
78.441165,0.012709,0.001880,-0.006175
78.471157,0.030891,0.016231,-0.000450
78.501148,0.027062,0.016407,0.010586
78.541137,0.021240,0.006699,0.005300
78.571128,0.009276,0.015520,0.000364
78.601120,-0.005699,0.013070,0.004438
78.641108,0.022808,0.004709,0.009439
78.671100,0.019862,-0.002321,0.013281
78.701091,0.013836,-0.000633,0.017314
78.741080,0.000373,-0.000427,0.016681
78.771071,-0.016436,0.017119,0.020243
78.801063,0.002149,0.002962,0.010195
78.841051,0.021384,-0.028990,-0.018672
78.871043,0.016786,-0.005622,-0.020648
78.911031,0.008315,0.005120,0.014937
78.941023,0.009086,-0.001119,0.018471
78.971014,0.033467,-0.016940,0.011521
79.011003,0.048973,-0.025319,0.011090
79.040994,0.004886,-0.003564,0.019216
79.070986,-0.010775,0.003995,0.016769
79.110974,-0.011474,0.001682,0.006173
79.140966,-0.000712,0.001402,0.000741
79.170957,0.020983,0.001327,-0.005520
79.210946,0.009097,0.007064,0.010585
79.240937,-0.013976,-0.013672,0.017690
79.270929,-0.005890,-0.013821,0.009157
79.310917,0.013897,-0.002095,0.002951
79.340909,0.020123,-0.006745,-0.001335
79.370900,0.027881,-0.022031,0.011214
79.410889,0.000455,0.005814,0.012937
79.440880,0.006212,0.009801,0.011310
79.470872,0.009457,0.004439,0.008549
79.510860,-0.002867,0.000920,0.003356
79.540852,0.017697,-0.012310,0.000403
79.570843,0.012451,0.032695,-0.007014
79.610832,-0.003393,0.008798,-0.002043
79.640823,0.032675,-0.042670,0.003971
79.670815,0.056060,-0.029197,-0.004174
79.710803,0.024240,-0.000968,0.004088
79.740795,0.024101,0.002674,0.011249
79.770786,0.007507,0.019732,0.019335
79.810775,0.012826,0.008998,0.008989
79.840766,-0.002875,-0.008755,0.019753
79.870758,-0.016461,-0.020761,0.011574
79.910746,-0.037320,0.021035,0.000163
79.940738,-0.067598,0.011285,-0.010053
79.970729,-0.008074,-0.029555,-0.014486
80.013219,0.019536,0.016218,0.000208
80.043210,0.014328,0.021768,0.014225
80.083199,0.012977,-0.004504,0.024449
80.113191,0.014016,0.001632,0.019145
80.143182,0.034298,-0.006104,0.017124
80.183171,0.029321,-0.014964,0.006859
80.213162,0.041826,-0.036225,0.004827
80.243153,0.043717,-0.012179,-0.004140
80.283142,0.056121,0.037621,0.006907
80.313133,-0.020075,0.017041,-0.000670
80.343124,0.013095,-0.020430,-0.004707
80.383113,0.034031,-0.004903,0.001745
80.413104,0.008247,0.013317,0.018994
80.443095,0.000042,0.003185,0.022494
80.483084,0.018602,-0.006923,0.028805
80.503078,0.038109,0.009638,0.032248
80.543065,0.059506,0.022746,0.037119
80.573056,0.052447,0.006243,0.017156
80.603048,0.008106,-0.010708,0.012667
80.633039,0.007254,0.001315,0.009341
80.673028,0.000657,0.007954,0.008732
80.703019,0.017560,-0.011550,0.006748
80.743008,-0.006116,0.000766,0.008894
80.772999,0.004754,-0.007788,0.007295
80.802991,-0.004479,-0.028648,0.004389
80.842979,-0.012102,-0.058961,0.004998
80.872971,0.005431,-0.051535,0.006543
80.902962,0.016483,-0.017471,0.003050
80.942951,0.017240,-0.009165,0.002664
80.972942,-0.005276,-0.004372,0.003328
81.002934,0.005657,0.000427,-0.001335
81.042923,0.028141,-0.016309,0.005697
81.072914,0.003716,0.001812,0.010197
81.102905,0.000824,0.012173,0.011382
81.142894,0.018602,-0.000495,0.004819
81.172885,0.021142,0.005428,0.002725
81.202877,0.024499,0.009146,0.007954
81.242866,0.013750,-0.007848,0.008288
81.272857,0.017185,-0.009420,0.004786
81.302849,0.026825,-0.014089,0.000347
81.342839,0.007710,-0.007186,0.005379
81.372830,0.017523,-0.003608,0.002558
81.402821,0.022346,-0.011530,0.003955
81.442809,0.017892,-0.010113,0.006315
81.472802,0.019200,-0.019471,0.003739
81.502792,0.024872,-0.022231,0.008372
81.542781,0.022744,-0.017500,0.008604
81.572774,0.006826,-0.009324,0.019956
81.602764,-0.024544,-0.004111,0.017969
81.642753,-0.006193,-0.010497,0.011422
81.672745,-0.014399,0.005702,0.011521
81.702736,-0.020032,0.004841,0.012150
81.742724,-0.001037,-0.010415,0.005067
81.772715,-0.002651,-0.007228,0.002835
81.802707,0.030263,-0.006246,-0.006020
81.842696,0.034930,-0.002209,-0.004283
81.872687,0.036950,0.012729,-0.007220
81.902679,0.004502,0.023270,0.001797
81.942667,0.043686,-0.006073,0.003493
81.972660,0.033467,-0.001635,0.014214
82.002651,0.004886,0.011419,0.019742
82.042639,-0.012440,0.004340,0.018541
82.072630,-0.009230,0.002789,0.020789
82.102622,-0.027542,0.036184,0.011919
82.142611,-0.001521,0.050725,0.002109
82.172601,-0.005225,0.037863,0.005671
82.202594,-0.010910,0.026976,0.008081
82.242583,-0.017197,-0.000560,0.012821
82.272573,-0.026318,-0.009664,0.018738
82.302567,-0.012808,-0.004989,0.008958
82.342556,0.003451,-0.014695,0.006780
82.372548,0.000700,-0.025011,0.002037
82.402539,-0.010243,0.004911,0.003800
82.442528,-0.010293,0.030649,0.005650
82.472519,0.018139,0.013656,0.008980
82.502510,0.036659,-0.022368,0.007980
82.542499,0.005282,0.007601,0.005252
82.572490,0.006564,0.021303,0.002908
82.602482,-0.002863,0.014669,0.000655
82.642471,-0.022123,0.026428,-0.002731
82.672462,0.020081,-0.000960,-0.018425
82.702453,-0.016133,-0.000062,-0.001027
82.742442,-0.002529,0.012010,0.009205
82.772434,0.011089,-0.013414,0.000476
82.802425,0.018496,-0.015428,0.003455
82.842414,0.018831,-0.002474,0.010353
82.872405,0.024171,-0.010504,0.012729
82.902396,0.021276,-0.001655,0.006959
82.942385,0.024925,0.015218,0.000290
82.972377,0.034987,0.004312,-0.005137
83.002368,0.016495,-0.012541,-0.004145
83.042357,0.004894,-0.014262,0.000480
83.072348,0.018368,0.012865,0.005923
83.102340,0.017001,-0.005953,0.009388
83.142328,0.010146,-0.029313,0.005716
83.172320,0.016079,-0.008305,0.005285
83.202311,0.022461,-0.007547,0.010542
83.242300,0.002574,-0.018871,0.005063
83.272291,-0.012216,-0.047112,-0.002144
83.302279,-0.000703,-0.062519,-0.006017
83.342267,0.019178,-0.019878,-0.006151
83.372259,0.013024,-0.007108,0.002130
83.402250,0.012785,-0.005720,0.005878
83.442239,0.016301,-0.002289,0.006230
83.472230,0.029290,-0.000183,0.010082
83.502222,0.019479,-0.016904,0.008781
83.542210,0.000754,-0.000914,0.010444
83.572202,0.016570,0.002443,0.008018
83.602193,0.022502,-0.009361,0.000225
83.642182,-0.003927,-0.005527,-0.004899
83.672173,-0.012383,-0.009288,0.002303
83.702165,-0.002698,0.007181,-0.000165
83.742153,-0.000713,0.009787,0.000091
83.772145,0.009930,-0.001661,0.004334
83.802136,0.017406,-0.000400,0.003726
83.842125,0.011714,0.009346,0.012281
83.872116,0.006563,-0.003571,0.014836
83.902108,0.006743,-0.008054,0.007493
83.942097,0.001399,-0.005203,0.002371
83.972088,0.010190,-0.000506,0.003249
84.014578,-0.004981,0.006893,0.004141
84.044569,-0.000840,0.002658,0.002613
84.074561,0.019873,0.001499,0.006154
84.114550,0.004590,0.003214,0.008729
84.144541,0.009824,0.001141,0.011722
84.174533,0.016908,0.000291,0.005559
84.214521,-0.008471,0.006661,0.009542
84.244513,0.013924,-0.006207,0.009804
84.274504,-0.006846,0.011594,0.010846
84.314497,0.010611,-0.001421,0.004292
84.344488,0.008861,-0.009541,0.004173
84.374480,0.002662,0.015701,0.010788
84.414468,0.007127,-0.005438,0.005033
84.444460,0.006627,0.004850,0.006858
84.474451,0.011657,0.011898,0.007845
84.514440,0.000310,-0.003406,0.009357
84.544432,0.017079,0.004458,0.008715
84.574423,0.003822,0.015025,0.007417
84.614412,0.010675,0.007856,0.005097
84.644403,0.004752,0.016758,0.004646
84.674395,0.002591,0.008979,0.005058
84.714383,0.005011,-0.005640,0.008165
84.744375,0.005022,0.003991,0.009100
84.774366,0.002215,0.003970,0.011879
84.814355,0.007404,-0.007722,0.006344
84.844346,0.014196,0.007504,0.010159
84.874338,0.003233,0.002511,0.014063
84.914327,-0.004581,-0.003470,0.011641
84.944318,-0.009038,0.006203,0.009812
84.974310,-0.008201,0.002686,0.005395
85.014298,-0.004317,-0.006527,0.008704
85.044290,-0.009752,0.000163,0.010258
85.074281,-0.003917,0.003679,0.012582
85.114270,-0.006044,-0.000168,0.010861
85.144261,-0.009867,-0.008099,0.006889
85.174253,-0.009784,-0.008024,0.009190
85.214242,-0.015491,0.001990,0.005213
85.244233,-0.003564,-0.000534,-0.004149
85.274225,-0.015206,0.000523,-0.000546
85.314210,-0.007445,0.000663,0.005524
85.344202,0.006939,0.011742,0.011549
85.384191,0.008654,0.000834,0.009883
85.414182,0.015586,-0.001317,0.007974
85.444173,0.007751,0.012575,0.014073
85.484162,0.006919,0.010032,0.012155
85.514154,0.015909,0.014831,0.010262
85.544145,0.007130,0.014153,0.009991
85.574137,0.012145,0.002624,0.004753
85.614125,0.014258,-0.000435,0.007694
85.644117,0.015790,0.005533,0.011115
85.674108,0.020354,0.009725,0.012493
85.714097,0.008559,0.011460,0.009116
85.744089,0.001670,0.012807,0.007437
85.784077,0.011126,-0.000859,0.011749
85.814069,0.011238,-0.008969,0.010886
85.844060,0.008053,-0.000788,0.008400
85.884049,0.019495,0.003621,0.008937
85.914040,0.003722,0.006657,0.009251
85.944032,0.015201,-0.002794,0.005077
85.984021,0.014367,-0.010902,0.007096
86.014012,0.013940,-0.004247,0.007965
86.044004,0.013043,0.005489,0.009593
86.083992,0.029026,-0.010230,0.013879
86.113984,0.017859,-0.017579,0.017194
86.143975,0.005012,0.006275,0.010203
86.183964,0.014742,-0.007220,0.004249
86.213956,-0.006637,-0.010716,0.008805
86.243947,0.006922,0.005204,0.002255
86.283936,0.005356,0.000517,0.001809
86.313927,0.026897,-0.014506,0.006852
86.343919,0.015908,-0.004226,0.014713
86.383907,0.009923,-0.002082,0.008519
86.413899,0.010681,-0.003619,0.003713
86.443890,0.010355,0.006576,0.003947
86.483879,0.012536,-0.005450,0.003586
86.513871,0.018606,0.001330,0.003225
86.543862,0.004325,0.007600,0.004061
86.583851,0.013190,-0.008923,0.001607
86.613842,0.008274,-0.009986,0.002982
86.643834,0.013697,0.002770,0.006299
86.683823,0.003610,0.006966,0.004418
86.713814,0.013754,-0.006491,0.003507
86.743806,0.018111,-0.012913,0.008793
86.783794,0.010106,0.006812,0.006005
86.813786,0.011090,0.003015,0.004998
86.843777,0.016043,-0.009497,0.006880
86.883766,0.019087,-0.000371,0.004356
86.913757,0.026305,-0.000375,0.006967
86.943749,0.011519,-0.006128,0.005111
86.983738,0.013456,-0.000434,0.008077
87.013729,0.012610,-0.003983,0.006951
87.043721,0.012560,-0.000304,0.008900
87.083709,0.018002,0.000451,0.011110
87.113701,0.006593,-0.005062,0.009136
87.143692,0.006941,0.002963,0.010569
87.183681,0.014968,-0.002128,0.009126
87.213673,0.018758,-0.005280,0.004930
87.243664,0.011396,0.008842,0.008432
87.283653,0.000965,0.002125,0.005298
87.313644,0.001301,0.005137,0.006224
87.343635,-0.003557,0.010156,0.004080
87.383624,-0.002642,0.007591,0.000356
87.413615,0.013324,-0.005096,0.001534
87.443607,0.008859,0.002278,0.005928
87.483595,0.011491,0.020110,0.012897
87.513587,0.017544,0.008917,0.012710
87.543578,0.022698,0.000339,0.012593
87.583567,0.030127,0.009427,0.014703
87.613558,0.019652,0.018973,0.011022
87.643550,0.020751,0.016141,0.006522
87.683539,0.015136,-0.004705,0.001542
87.713530,0.019660,-0.001432,0.005429
87.743522,0.008052,0.001365,0.006599
87.783510,0.005919,0.006592,0.008444
87.813502,0.010591,0.000653,0.009287
87.843493,0.006603,0.008017,0.006096
87.883482,0.014231,0.000553,0.005505
87.913474,0.017385,-0.020942,-0.003991
87.943465,0.016773,-0.013199,-0.007020
87.983454,-0.007306,-0.011844,-0.001587
88.013445,-0.014000,-0.007373,-0.005453
88.043437,-0.008211,-0.002567,-0.000440
88.083426,-0.001039,-0.008522,0.002187
88.113417,-0.019614,-0.004793,0.004834
88.143409,-0.005746,0.017579,0.000464
88.183397,0.000254,0.000904,0.008821
88.213389,0.018239,0.002253,0.009787
88.243380,0.017947,0.013799,0.008857
88.283369,0.015681,0.002986,0.007376
88.313360,0.017210,0.009731,0.012243
88.343353,0.013238,0.022640,0.011151
88.383342,0.017855,0.002618,0.009048
88.413333,0.019929,-0.004303,0.006510
88.443325,0.012666,0.012124,0.005827
88.483313,0.009564,-0.006563,0.002378
88.503308,0.001819,-0.007636,0.000871
88.534546,-0.003339,0.001322,-0.005863
88.574535,0.000865,-0.012723,0.000223
88.604527,-0.002333,-0.015883,0.010985
88.634518,0.004536,0.016036,0.014492
88.674507,0.009886,0.028707,0.022882
88.704498,0.024510,0.023634,0.020332
88.734490,0.024087,0.018954,0.021578
88.774478,-0.008389,0.020263,0.017046
88.804470,0.006487,0.007987,0.003627
88.834462,-0.018924,0.010197,0.005291
88.874450,0.011115,-0.007982,-0.004190
88.904442,0.009176,-0.004119,0.003992
88.934433,0.006354,0.009925,0.006666
88.974422,0.001016,0.001600,0.006584
89.004413,-0.008118,0.004049,0.008679
89.034405,0.012697,0.010721,0.007162
89.074394,0.015858,0.006609,0.011381
89.104385,-0.001540,0.016433,0.017921
89.134377,-0.011399,0.021034,0.020891
89.174365,0.009661,0.019986,0.018084
89.204357,0.027648,0.007231,0.009969
89.234348,0.007722,0.019201,0.013322
89.274337,0.068819,0.024282,0.010974
89.304328,0.054883,0.022343,0.010200
89.334320,0.034417,0.016915,0.010588
89.374309,0.031287,0.012693,0.006399
89.404300,-0.004381,0.020897,0.015642
89.434292,0.012883,0.021543,0.010541
89.474280,0.010463,0.000823,0.011546
89.504272,0.025803,-0.005217,0.008024
89.534263,0.018797,0.007272,0.011482
89.574252,0.021773,0.008289,0.010791
89.604243,0.013038,-0.002142,0.011203
89.634235,0.027365,-0.007741,0.005069
89.674224,0.047118,-0.001518,-0.001982
89.704215,0.046342,-0.000542,-0.003718
89.734207,0.015752,-0.005508,-0.001630
89.774195,-0.001105,0.003722,0.005722
89.804187,-0.006033,-0.008266,0.006070
89.834178,0.013649,-0.016670,0.002136
89.874167,-0.004013,0.009385,0.008163
89.904158,-0.024725,-0.000891,0.007505
89.934150,-0.007409,-0.016440,0.003315
89.974139,0.003883,-0.001874,0.005179
90.004130,-0.005939,-0.006408,0.006644
90.034122,-0.004060,-0.009280,0.007940
90.074110,-0.002034,-0.007021,0.007045
90.104102,-0.001385,-0.003052,0.007992
90.134093,-0.006747,-0.000974,0.008864
90.174082,0.009701,-0.016887,0.003156
90.204073,0.002460,-0.008592,0.010848
90.234065,0.004579,-0.008016,0.008343
90.274054,0.008670,-0.003532,0.006584
90.304045,0.001430,0.004830,0.008294
90.334037,0.010241,0.010167,0.006413
90.374025,0.002765,-0.007375,0.011648
90.404017,0.014515,0.008355,0.008742
90.434008,0.010932,0.009529,0.014691
90.473997,-0.014913,-0.000222,0.021780
90.503988,-0.017015,0.016339,0.022865
90.533980,-0.012197,0.022172,0.023128
90.573969,-0.007273,-0.001801,0.022194
90.603960,0.010433,0.006007,0.019994
90.633951,-0.011186,-0.011157,0.028424
90.673940,0.034145,-0.017589,0.004305
90.703932,0.049536,-0.006203,-0.005042
90.733923,0.033684,-0.004263,-0.000814
90.773912,0.007515,-0.001222,0.001324
90.803903,0.010384,0.011010,0.005222
90.833895,0.027942,0.000595,0.005625
90.873883,0.024949,-0.008233,0.007045
90.903875,0.039595,0.004966,0.008383
90.933866,0.019667,0.005377,0.010576
90.973855,0.016934,-0.008217,0.008163
91.003847,0.023990,0.007514,0.009720
91.033838,0.015658,0.001680,0.005895
91.073827,0.005319,-0.002628,0.009893
91.103818,0.023346,-0.009242,-0.001691
91.133810,0.015794,-0.000959,0.005854
91.173798,0.013083,-0.004151,0.007498
91.203790,0.001518,-0.015218,0.010148
91.233781,-0.006463,-0.002891,0.016121
91.273770,0.004552,-0.007118,0.013250
91.303762,0.007793,0.008342,0.014450
91.333752,0.005623,-0.001772,0.013876
91.373741,0.012785,-0.002063,0.008162
91.403732,-0.005026,0.004878,0.015170
91.433724,0.018075,0.001736,0.003647
91.473712,-0.001618,-0.003580,0.007691
91.503704,-0.007015,0.003621,0.015414
91.533695,0.000570,0.005387,0.011808
91.573684,0.013562,0.002972,0.008468
91.603676,-0.004655,0.009403,0.011118
91.633667,-0.020241,0.004515,0.014695
91.673656,-0.028639,0.013884,0.010137
91.703647,0.018154,0.003756,0.004296
91.733639,0.038673,-0.011991,-0.001676
91.773627,0.015732,-0.008210,0.009910
91.803619,-0.010104,0.014255,0.007230
91.833610,-0.009612,0.021312,0.001952
91.873599,-0.012608,0.009407,0.001798
91.903590,0.011200,-0.000946,0.002337
91.933582,0.006721,0.008735,0.009204
91.973571,0.009501,0.014908,0.012423
92.008563,0.012296,0.028585,0.008712
92.048552,0.025932,0.005528,0.004375
92.078543,0.031529,0.005425,0.007188
92.108535,0.027469,0.011076,0.007328
92.148523,0.029370,0.021893,0.003308
92.178515,0.015293,0.017433,-0.000787
92.208506,0.054032,0.000817,-0.015240
92.248495,-0.035029,0.035788,0.056477
92.278487,0.052001,0.004565,-0.001337
92.308478,0.050567,0.009860,0.010622
92.348468,0.068512,0.052991,0.003559
92.378459,0.005437,0.073809,0.018546
92.408451,0.040995,0.022165,-0.030982
92.448439,0.082891,-0.039020,-0.013704
92.478431,0.117775,0.061177,-0.008497
92.508422,0.116617,0.108623,0.003292
92.538414,0.123363,0.126433,0.003410
92.568403,0.084807,0.101882,-0.001062
92.608391,0.054277,0.107314,0.018651
92.638383,0.014112,0.118704,0.017592
92.668374,0.017127,0.061642,0.028622
92.708363,-0.031821,-0.030409,0.049768
92.738354,0.019019,-0.096398,0.058721
92.768346,0.041830,-0.139496,0.014200
92.808335,0.070818,0.015507,0.050459
92.838326,0.067485,0.207072,0.092647
92.868318,0.166821,0.181714,0.096486
92.908306,0.106716,0.106783,0.078149
92.938298,0.018002,-0.007678,0.066564
92.968289,0.032982,-0.209673,-0.037119
93.008278,0.027479,-0.133474,-0.016533
93.038269,-0.042473,0.027281,0.028154
93.068261,-0.041417,0.022728,0.020962
93.108249,-0.023296,-0.027855,0.006621
93.138241,-0.020254,-0.040761,-0.010900
93.168232,-0.022160,-0.038509,-0.008310
93.208221,-0.019666,0.008311,-0.007164
93.238213,-0.052614,0.023290,0.003609
93.268204,-0.062111,0.037404,0.013144
93.308193,-0.062424,0.016276,0.007604
93.338184,-0.041908,0.002564,0.007241
93.368176,-0.042203,-0.007839,-0.001597
93.408164,-0.046893,-0.004350,0.004129
93.438156,-0.042902,0.009187,0.004065
93.468147,-0.023608,0.018941,0.004863
93.508136,-0.011302,-0.009317,0.008011
93.538127,-0.012015,-0.015969,0.000100
93.568119,0.005734,-0.023561,-0.003051
93.608107,-0.013233,-0.003907,0.003407
93.638099,-0.003335,-0.026117,-0.004351
93.668090,0.006176,-0.044257,0.000252
93.708079,-0.019949,-0.053208,-0.001521
93.738070,-0.052080,-0.027481,0.004620
93.768062,-0.030228,0.015935,-0.000647
93.808051,-0.001404,0.019770,0.000829
93.838042,-0.002204,-0.016043,0.000263
93.868033,0.010786,-0.025152,0.007650
93.908022,0.024930,-0.033034,0.015929
93.938014,0.015348,-0.023546,0.000368
93.968005,0.010348,-0.020029,-0.001586
94.007994,0.037264,-0.032194,-0.001014
94.037985,0.026851,-0.015591,0.003479
94.067977,0.023914,-0.015741,-0.008554
94.107965,0.062143,-0.073019,-0.007144
94.137957,-0.038653,-0.053422,-0.002457
94.167948,0.038778,0.031085,0.008282
94.207937,-0.019456,-0.000893,0.024249
94.237928,0.044685,-0.024993,0.027174
94.267920,0.052833,-0.011027,0.018696
94.307908,0.054935,-0.002107,0.012608
94.337900,0.033763,0.038045,0.014095
94.367891,-0.075433,0.024490,-0.033539
94.407880,-0.019151,0.054199,-0.060857
94.437871,-0.029528,0.013123,-0.044596
94.467863,0.026595,0.003451,-0.005391
94.507851,0.053854,-0.043581,0.044476
94.537843,0.028054,-0.081813,0.037887
94.567834,-0.004373,-0.018735,0.024668
94.607823,-0.029148,0.048327,-0.007334
94.637814,-0.012427,-0.023172,-0.019990
94.667806,0.033170,-0.043645,-0.010057
94.707795,0.030628,-0.003325,0.011059
94.737786,-0.022033,0.004444,0.019453
94.767777,-0.044008,-0.004634,0.012580
94.807766,-0.007997,-0.002564,0.019440
94.837758,0.025321,-0.039796,0.009653
94.867749,0.029163,-0.068411,-0.006489
94.907738,-0.003765,0.011714,-0.001198
94.937729,-0.008396,0.020410,-0.000983
94.967721,-0.017445,-0.013093,-0.006386
95.007709,0.016904,-0.009894,0.003931
95.037701,0.003663,-0.003943,0.003998
95.067692,0.005790,-0.013511,0.008814
95.107681,0.015281,-0.010968,0.010346
95.137672,-0.029798,-0.019850,0.001470
95.167664,-0.021081,-0.034105,-0.014485
95.207652,-0.018810,0.005418,-0.032271
95.237644,-0.018166,-0.037506,-0.007635
95.267635,-0.019795,-0.025202,-0.011318
95.307624,-0.025377,0.103964,0.019851
95.337615,-0.049534,0.045304,0.019774
95.367607,-0.022970,0.031475,0.028228
95.407595,-0.021802,0.015857,0.012278
95.437587,0.010413,-0.035152,0.028273
95.467578,-0.019762,-0.024343,0.055521
95.507567,0.046657,0.025809,0.031704
95.537558,-0.000238,0.002777,0.020685
95.567550,0.008838,0.016013,0.023487
95.607539,0.069860,-0.018407,0.010148
95.637530,0.041755,-0.052382,-0.001660
95.667521,0.035800,-0.002229,0.001663
95.707510,0.004386,0.005429,0.013542
95.737502,0.020194,-0.012355,0.020253
95.767493,0.037745,0.015080,0.030383
95.807482,0.043099,-0.018154,0.003470
95.837473,0.036861,0.006351,0.002608
95.867465,0.052979,0.059133,0.015154
95.907453,0.036118,0.024496,0.065865
95.937445,0.040949,-0.008521,0.086880
95.967436,0.002516,-0.012598,0.083039
96.008677,0.091224,-0.024699,0.056970
96.048666,0.108639,-0.058794,0.000843
96.078657,0.052662,-0.008392,-0.031832
96.108648,0.008375,0.046178,-0.024428
96.148637,-0.004127,0.002227,-0.008897
96.178629,0.035767,-0.022987,-0.000138
96.208620,0.019222,-0.035820,0.010777
96.248609,0.013002,-0.002430,0.008782
96.278600,0.007282,-0.003714,-0.014978
96.308592,0.028803,0.015417,-0.008426
96.348580,0.008074,-0.022990,-0.004167
96.378572,0.025336,-0.026282,0.018489
96.408563,0.028250,-0.026622,0.014085
96.448552,0.045814,-0.025153,0.005896
96.478543,0.046657,-0.013136,-0.001615
96.508535,0.003357,0.004820,0.000645
96.538525,-0.014808,0.010058,0.014081
96.578513,-0.020310,-0.013276,0.021058
96.608505,0.072943,-0.056615,0.031543
96.638496,0.048867,-0.088594,0.016066
96.678485,0.005602,0.015528,0.013219
96.708476,-0.022015,0.028857,-0.004153
96.738468,-0.026392,0.002029,-0.001701
96.778457,0.019707,-0.032479,-0.010913
96.808448,0.134019,-0.062590,0.011348
96.838439,0.008220,-0.083900,0.024473
96.878428,-0.005245,0.018070,0.007694
96.908420,-0.037893,0.075692,0.006499
96.938411,0.013416,0.048360,0.007099
96.978400,0.056106,-0.052951,0.018462
97.008391,0.077865,-0.070808,0.009900
97.038383,0.029229,-0.017995,-0.012784
97.078371,0.024804,0.027460,-0.009222
97.108363,0.009352,-0.026501,-0.003747
97.138354,0.038469,-0.028326,0.003741
97.178343,0.038410,-0.012174,0.027609
97.208334,0.032881,-0.047271,0.022413
97.238326,-0.003564,-0.015475,0.004684
97.278314,0.024094,-0.034817,-0.001126
97.308306,0.023994,-0.050502,-0.000870
97.338297,0.035717,-0.038156,0.007132
97.378286,0.053926,-0.030433,0.013062
97.408277,0.007113,-0.003384,0.009784
97.438269,0.026512,-0.007996,0.008445
97.478257,0.026425,-0.046447,0.006959
97.508249,0.026994,-0.019203,0.007397
97.538240,0.017044,-0.005231,0.010920
97.578229,0.009471,0.033855,0.020994
97.608221,-0.021445,0.008752,0.021068
97.638212,0.008903,-0.006371,0.009886
97.678201,0.028714,0.002458,0.009058
97.708192,0.051819,-0.025741,-0.001604
97.738184,0.000598,-0.020835,0.003610
97.778172,0.015269,0.037589,0.010285
97.808164,0.034963,0.010517,0.014392
97.838155,0.031160,-0.007894,0.018878
97.878144,0.005155,0.003834,0.018473
97.908135,0.004521,0.007086,0.016770
97.938127,0.023045,-0.007413,0.003870
97.978115,0.024954,-0.008757,-0.005732
98.008107,0.014111,0.011957,-0.014028
98.038098,0.010292,0.033493,-0.008500
98.078087,-0.006734,-0.003831,0.004038
98.108078,0.053733,-0.014649,0.018781
98.138070,0.031561,-0.018367,0.015702
98.178058,0.008701,-0.018958,0.007171
98.208050,0.006208,0.013080,0.000858
98.238041,0.007183,0.017800,0.000907
98.278030,0.026525,-0.006706,0.007125
98.308021,0.022003,-0.026814,0.015489
98.338013,0.019567,-0.005535,0.019549
98.378001,-0.010739,0.002724,0.011412
98.407993,-0.011779,0.000184,0.000994
98.437984,0.018489,0.009672,0.009447
98.477973,0.024591,-0.028308,0.014913
98.507964,0.011514,-0.019666,0.016351
98.537956,-0.016760,0.002864,0.016009
98.577945,0.001458,0.005240,0.000265
98.607936,0.027132,0.017219,-0.003054
98.637928,0.017663,-0.009947,0.003339
98.677916,0.007607,-0.009506,0.005084
98.707908,-0.002552,0.008181,0.018476
98.737899,0.009469,-0.006002,0.019494
98.777888,0.000246,0.009799,0.024559
98.807879,0.006625,0.008270,0.013918
98.837871,-0.000612,-0.001141,-0.004503
98.877859,0.026726,0.011079,-0.013663
98.907851,0.026946,-0.017853,-0.014734
98.937842,0.037759,-0.004931,-0.004718
98.977831,0.000064,0.008022,0.001809
99.007822,-0.004472,-0.005654,0.004967
99.037814,0.003610,0.012661,-0.001377
99.077802,0.007788,0.013863,-0.002044
99.107794,0.041919,-0.014380,0.002583
99.137785,0.032083,-0.025863,0.006324
99.177774,0.011002,0.004602,0.006474
99.207765,0.025883,-0.008779,-0.005559
99.237757,0.025531,-0.017872,-0.005339
99.277745,0.010968,0.011965,0.004802
99.307737,-0.009064,0.009849,-0.001385
99.337728,0.029590,0.003574,0.011286
99.377717,0.047275,-0.041821,0.021094
99.407708,-0.010901,-0.030442,0.021562
99.437700,0.020636,0.025072,0.017023
99.477689,-0.016548,0.015305,0.006181
99.507680,0.034840,0.011787,-0.002344
99.537671,-0.013934,-0.024024,-0.005196
99.577660,0.044429,-0.009091,0.004722
99.607652,0.002240,-0.027495,0.007905
99.637643,0.006694,-0.002590,0.010843
99.677632,0.019297,-0.022137,0.012300
99.707623,0.027259,0.000184,0.003958
99.737615,-0.000946,0.035399,0.003689
99.777603,-0.003479,0.004888,-0.021215
99.807595,0.024403,-0.005486,-0.006063
99.837586,0.035876,-0.022958,0.000048
99.877575,0.014094,-0.017519,0.015199
99.907566,-0.007434,0.026874,0.020175
99.937558,0.000285,0.017694,0.015802
99.977546,-0.017315,0.005160,0.016451
100.010039,0.013871,0.013076,0.026556
100.050027,0.020274,-0.006050,0.045314
100.080019,0.010229,0.006157,0.032680
100.110010,-0.009151,0.021626,0.013161
100.149999,-0.024044,0.012264,0.001862
100.179990,-0.018659,0.009099,0.005539
100.209982,0.022612,-0.014693,0.016271
100.249970,-0.022963,-0.006220,0.018076
100.279962,-0.002056,0.001498,0.005834
100.309953,-0.003727,0.009223,-0.001307
100.349942,0.035654,0.027707,-0.002900
100.379933,0.005698,0.001189,0.001024
100.409925,0.027855,0.014737,0.019005
100.449913,-0.002658,-0.025035,0.017397
100.479905,0.005085,-0.008854,0.008587
100.509896,-0.025292,0.011248,0.002263
100.539887,-0.023347,0.005130,0.009276
100.579876,0.013486,-0.012606,0.007523
100.609867,0.033616,0.004930,0.010494
100.639859,0.027736,-0.017937,0.006351
100.679847,-0.019393,-0.001592,-0.000537
100.709839,-0.011662,0.030732,0.008344
100.739830,-0.018222,-0.004539,0.013808
100.779819,0.007845,-0.032763,0.022710
100.809810,0.032646,-0.036812,0.037239
100.839802,-0.000292,-0.015319,0.019831
100.879790,-0.003285,0.059384,-0.001760
100.909782,-0.017729,0.035995,-0.014587
100.939773,0.052977,-0.009258,-0.032470
100.979762,0.058760,-0.026731,-0.034784
101.009753,0.047174,-0.015566,-0.045229
101.039745,0.007577,0.010433,-0.041310
101.079733,0.047433,0.058492,-0.006453
101.109725,0.040857,0.045720,0.018257
101.139716,0.036712,0.009037,0.053162
101.179705,0.006738,-0.002190,0.077397
101.209696,0.016352,0.020252,0.081936
101.239688,0.018303,0.039885,0.045905
101.279676,0.009848,0.022946,0.005076
101.309668,0.015351,0.051676,-0.024832
101.339659,0.012670,0.098065,-0.027015
101.379648,0.013144,0.011503,-0.002216
101.409640,-0.005502,-0.009847,-0.011954
101.439631,-0.019474,0.046527,-0.007622
101.479620,0.002871,0.015787,0.002886
101.509611,0.020150,-0.034263,-0.006479
101.539603,0.038287,-0.007122,-0.026419
101.579591,0.004610,-0.018748,-0.049857
101.609583,-0.025407,0.030180,-0.045234
101.639574,0.027494,0.040780,-0.032170
101.679563,0.047834,-0.055621,-0.042834
101.709554,0.015107,0.006929,-0.045636
101.739546,-0.005764,0.079351,-0.019626
101.779534,-0.027188,0.046113,0.072628
101.809526,0.005266,-0.048229,0.111668
101.839517,0.040682,-0.055444,0.086724
101.879506,-0.013970,0.023582,0.008188
101.909497,-0.029941,0.046158,-0.030869
101.939489,0.014286,0.007836,-0.030899
101.979477,0.057106,-0.060237,-0.018061
102.009469,0.028414,-0.033570,0.004649
102.039460,-0.017178,0.023086,0.026277
102.079449,-0.049232,-0.013632,0.008131
102.109440,-0.005612,0.014287,0.006946
102.139432,0.006474,0.019607,-0.001002
102.179420,0.029101,-0.032683,-0.004159
102.209412,0.033028,-0.030886,-0.002129
102.239403,0.012061,0.006354,0.020736
102.279392,0.006822,-0.024201,0.025617
102.309383,0.006640,-0.014307,0.026138
102.339378,0.014056,0.067895,0.014804
102.379366,0.018572,-0.023038,-0.014993
102.409358,0.056950,-0.048323,-0.019861
102.439349,0.009615,-0.036530,-0.001307
