time_tick,acc_X_value,acc_Y_value,acc_Z_value
0.015823,1.132049,-2.287592,-9.282053
0.049592,0.928385,-2.417631,-9.549914
0.082912,1.065757,-2.508614,-9.588671
0.116230,0.622664,-2.154559,-9.125077
0.149549,0.737141,-2.751635,-9.676063
0.182887,0.824084,-3.012163,-9.891249
0.216252,0.823934,-2.888707,-9.472399
0.249543,0.582261,-2.575654,-9.326347
0.282949,0.569990,-2.359570,-9.081681
0.316269,0.941553,-2.563982,-9.486016
0.349526,1.390482,-2.700457,-10.095063
0.382887,1.107657,-2.718264,-9.712426
0.415909,0.902497,-2.281456,-9.362112
0.449233,0.708260,-2.308093,-9.102780
0.482953,0.763179,-2.274274,-9.346848
0.515669,0.522104,-2.118046,-9.427057
0.549658,0.396255,-2.012099,-9.386503
0.582877,0.459853,-2.121338,-9.417330
0.616234,0.565800,-2.155457,-9.499783
0.649545,0.644063,-2.066569,-9.510109
0.682939,0.675638,-2.107122,-9.612464
0.716059,0.572983,-2.118346,-9.521032
0.749527,0.506841,-2.041429,-9.449952
0.782951,0.593185,-2.057142,-9.609771
0.816204,0.603360,-2.116849,-9.620994
0.849647,0.583607,-2.093804,-9.539738
0.882879,0.562807,-1.951194,-9.506966
0.916266,0.602313,-2.088866,-9.590018
0.949541,0.549938,-2.094852,-9.540336
0.982856,0.573581,-2.088267,-9.555151
1.015609,0.550237,-2.155008,-9.444415
1.049587,0.560114,-2.078391,-9.501729
1.083014,0.545748,-2.102932,-9.546322
1.116194,0.568344,-2.065671,-9.560389
1.149521,0.559964,-2.059087,-9.582985
1.182928,0.559964,-2.065522,-9.525222
1.216195,0.525845,-2.083179,-9.549914
1.249569,0.543952,-2.095151,-9.586426
1.282975,0.557570,-2.058937,-9.619797
1.315819,0.560562,-2.057591,-9.610669
1.349102,0.538565,-2.062678,-9.594806
1.382525,0.518214,-2.042028,-9.558443
1.415822,0.534375,-2.061631,-9.525522
1.449086,0.542007,-2.052952,-9.526569
1.482394,0.529287,-2.088716,-9.575054
1.515440,0.540510,-2.165333,-9.542132
1.549088,0.490230,-2.105177,-9.498586
1.582430,0.517615,-2.097096,-9.466562
1.615730,0.500107,-2.104878,-9.473446
1.649074,0.505344,-2.122236,-9.522679
1.682552,0.498311,-2.169075,-9.538690
1.715736,0.500107,-2.132113,-9.522529
1.749085,0.486938,-2.098742,-9.567721
1.782479,0.483197,-2.118495,-9.549315
1.815795,0.482299,-2.090063,-9.511006
1.849128,0.479905,-2.108619,-9.533752
1.882385,0.489632,-2.095749,-9.550512
1.915501,0.442644,-2.081234,-9.540785
1.949135,0.482150,-2.092906,-9.545724
1.982476,0.524349,-2.056693,-9.573408
2.015242,0.483496,-2.044272,-9.557396
2.049516,0.470926,-2.066419,-9.579244
2.082968,0.456710,-2.040831,-9.615158
2.116740,0.470477,-2.045619,-9.590766
2.149640,0.467634,-2.020479,-9.545724
2.182848,0.465539,-1.998332,-9.548417
2.216265,0.455064,-2.038436,-9.567422
2.249641,0.457458,-2.049510,-9.555450
2.282870,0.456860,-2.027063,-9.587474
2.316833,0.492325,-2.031702,-9.584481
2.349586,0.465988,-2.045469,-9.564130
2.382912,0.446086,-2.039633,-9.549165
2.416581,0.433965,-2.031553,-9.506367
2.448955,0.424537,-2.052503,-9.547370
2.482929,0.441896,-2.068963,-9.579244
2.516393,0.439651,-2.048762,-9.546472
2.549578,0.457309,-2.031702,-9.510258
2.582862,0.460601,-2.022724,-9.557994
2.616592,0.393112,-2.036491,-9.533453
2.649564,0.408226,-2.033199,-9.538840
2.682861,0.413613,-2.078690,-9.579543
2.716442,0.435760,-2.029308,-9.535249
2.749633,0.461349,-2.037239,-9.537792
2.782855,0.463893,-2.047265,-9.507565
2.816607,0.425884,-2.026315,-9.559940
2.849556,0.423639,-2.014344,-9.577598
2.882877,0.440848,-2.040681,-9.537643
2.916426,0.431720,-1.970199,-9.561286
2.949650,0.451622,-1.973790,-9.570415
2.982663,0.414212,-1.938175,-9.567871
3.016403,0.432169,-1.939522,-9.591963
3.049627,0.450725,-1.924109,-9.622640
3.082885,0.431271,-1.932788,-9.582985
3.115653,0.437855,-1.915579,-9.591664
3.149616,0.438304,-1.923660,-9.563082
3.182860,0.434563,-1.911389,-9.583134
3.216824,0.458506,-1.886848,-9.620844
3.249529,0.468233,-1.929945,-9.623987
3.282936,0.432019,-1.888793,-9.604533
3.316394,0.497114,-1.873979,-9.608723
3.349656,0.445487,-1.845995,-9.613362
3.382877,0.412566,-1.872333,-9.554852
3.416581,0.485142,-1.901214,-9.634911
3.449586,0.432468,-1.896874,-9.584182
3.482904,0.462696,-1.886698,-9.607227
3.516233,0.436658,-1.872482,-9.539588
3.549639,0.458656,-1.842853,-9.560688
3.582939,0.425734,-1.891786,-9.559341
3.616735,0.425884,-1.902860,-9.645086
3.649547,0.424836,-1.865299,-9.619498
3.682955,0.461499,-1.791226,-9.604533
3.716789,0.489632,-1.809782,-9.575353
3.749490,0.444739,-1.863204,-9.592861
3.782922,0.416157,-1.854675,-9.632965
3.816569,0.437855,-1.890290,-9.606479
3.849590,0.471375,-1.841057,-9.577598
3.883003,0.449228,-1.775962,-9.584182
3.916205,0.435461,-1.806939,-9.604982
3.949595,0.451473,-1.815768,-9.610968
3.982978,0.425884,-1.831630,-9.604683
4.016201,0.434264,-1.843302,-9.605880
4.049520,0.422891,-1.783894,-9.608723
4.082946,0.433665,-1.814121,-9.598248
4.116201,0.456860,-1.786587,-9.641495
4.149540,0.443991,-1.759951,-9.589419
4.182923,0.428877,-1.770875,-9.616954
4.216189,0.469580,-1.758604,-9.630571
4.249575,0.432318,-1.776112,-9.627578
4.282916,0.425136,-1.832079,-9.586576
4.316186,0.428727,-1.801402,-9.638801
4.349545,0.441297,-1.765039,-9.616205
4.382977,0.441746,-1.752768,-9.613063
4.416174,0.435910,-1.777160,-9.624585
4.449517,0.437257,-1.791974,-9.630272
4.482850,0.439202,-1.787485,-9.629224
4.516215,0.434114,-1.805143,-9.580740
4.549511,0.429924,-1.758454,-9.590317
4.582905,0.439651,-1.828487,-9.616205
4.616212,0.427081,-1.826691,-9.593011
4.649525,0.419000,-1.815169,-9.611716
4.682847,0.414661,-1.845846,-9.598847
4.716230,0.403288,-1.846444,-9.558294
4.749565,0.409872,-1.828038,-9.605880
4.782919,0.434114,-1.823699,-9.589868
4.816208,0.387575,-1.839261,-9.569367
4.849595,0.413015,-1.841506,-9.595704
4.882917,0.443392,-1.865898,-9.635809
4.916204,0.406879,-1.777908,-9.592861
4.949442,0.394459,-1.834024,-9.578795
4.982827,0.401791,-1.862606,-9.600343
5.016216,0.388323,-1.854226,-9.639250
5.049315,0.409423,-1.851981,-9.590317
5.082832,0.409722,-1.813523,-9.583883
5.116315,0.413613,-1.806639,-9.607975
5.149491,0.413015,-1.836269,-9.626531
5.182871,0.420048,-1.841805,-9.630870
5.216197,0.427380,-1.839860,-9.591065
5.249523,0.414960,-1.821454,-9.589270
5.282858,0.396404,-1.834772,-9.608274
5.316196,0.399996,-1.840159,-9.623987
5.349487,0.397901,-1.855573,-9.606479
5.382989,0.400594,-1.860211,-9.578495
5.416228,0.403886,-1.852729,-9.613213
5.449515,0.413314,-1.867245,-9.625633
5.482984,0.420946,-1.828487,-9.573408
5.516278,0.430972,-1.843751,-9.606479
5.548962,0.409273,-1.860511,-9.582536
5.582936,0.412416,-1.901663,-9.605132
5.616175,0.410022,-1.876523,-9.560838
5.649582,0.403886,-1.869639,-9.609621
5.682944,0.403288,-1.886848,-9.588970
5.716181,0.386977,-1.876373,-9.616355
5.749571,0.413015,-1.891038,-9.588372
5.782940,0.417504,-1.827290,-9.584930
5.816241,0.432019,-1.855423,-9.588821
5.849525,0.430972,-1.894929,-9.628925
5.882887,0.415708,-1.893283,-9.588521
5.916203,0.403138,-1.857967,-9.601241
5.949535,0.419898,-1.886399,-9.587324
5.982918,0.407328,-1.889691,-9.572360
6.016193,0.374407,-1.904206,-9.585229
6.048856,0.396554,-1.869489,-9.663044
6.082885,0.413613,-1.918572,-9.630870
6.116290,0.358545,-1.904655,-9.521930
6.149519,0.413015,-1.876074,-9.568918
6.182894,0.532430,-1.918872,-9.575503
6.216219,0.510133,-1.922762,-9.682048
6.249594,0.445337,-1.911240,-9.617552
6.282966,0.404036,-1.904805,-9.529263
6.316185,0.424836,-1.952092,-9.532405
6.349587,0.445337,-1.957479,-9.548716
6.382964,0.438753,-1.971546,-9.553056
6.416193,0.410920,-1.971695,-9.665438
6.449674,0.454765,-1.973641,-9.573258
6.482996,0.447432,-1.937876,-9.561436
6.516181,0.474218,-1.952840,-9.498287
6.548739,0.485442,-1.971845,-9.619498
6.582969,0.492774,-2.023771,-9.527018
6.616297,0.457159,-1.976634,-9.569816
6.649533,0.477810,-1.993094,-9.581638
6.682901,0.465240,-1.950895,-9.563381
6.716223,0.508936,-1.979028,-9.591963
6.749540,0.482449,-1.938325,-9.575802
6.782921,0.470178,-1.928748,-9.574904
6.816221,0.456710,-1.951045,-9.607676
6.849601,0.497264,-1.935033,-9.603186
6.882913,0.473770,-1.961520,-9.555899
6.916318,0.486489,-1.954786,-9.568020
6.949603,0.474368,-1.930394,-9.575353
6.982934,0.478558,-1.939223,-9.605132
7.016261,0.489183,-1.911838,-9.505470
7.049593,0.499359,-1.910641,-9.582236
7.082859,0.475715,-1.923810,-9.559191
7.115343,0.451922,-1.914682,-9.586426
7.149611,0.460302,-1.926803,-9.609023
7.182904,0.480653,-1.939373,-9.645984
7.216223,0.481850,-1.825494,-9.555001
7.249640,0.421095,-1.845546,-9.573408
7.282929,0.429775,-1.853777,-9.589868
7.316216,0.420497,-1.892085,-9.587624
7.349524,0.476762,-1.844349,-9.636706
7.382933,0.447582,-1.841656,-9.617103
7.416192,0.449527,-1.834323,-9.571163
7.449536,0.448330,-1.829834,-9.576550
7.482903,0.459254,-1.817264,-9.612015
7.516312,0.442195,-1.795416,-9.621892
7.549555,0.473021,-1.823100,-9.631469
7.582775,0.455064,-1.783594,-9.608574
7.616168,0.521206,-1.793471,-9.648828
7.649526,0.492625,-1.805143,-9.624436
7.682888,0.508187,-1.791076,-9.659452
7.716209,0.482449,-1.830133,-9.631768
7.749522,0.480803,-1.798259,-9.620246
7.782881,0.493074,-1.826991,-9.609172
7.816220,0.486340,-1.782397,-9.623239
7.849585,0.500705,-1.846145,-9.577149
7.882945,0.499807,-1.878917,-9.621443
7.916251,0.501454,-1.857817,-9.623089
7.949528,0.508337,-1.858266,-9.577149
7.982898,0.506841,-1.848390,-9.568619
8.016289,0.498760,-1.880413,-9.576550
8.049617,0.508636,-1.916926,-9.583434
8.082911,0.497413,-1.939073,-9.593011
8.116273,0.502052,-1.921116,-9.590168
8.149632,0.487686,-1.923660,-9.554702
8.182927,0.484993,-1.926354,-9.571462
8.216215,0.475565,-1.929197,-9.536595
8.249623,0.483197,-1.928000,-9.569517
8.282909,0.474069,-1.943263,-9.566674
8.316162,0.502052,-1.931442,-9.569816
8.349591,0.480055,-1.920069,-9.576251
8.382935,0.483646,-1.919769,-9.565177
8.416186,0.479157,-1.924558,-9.603336
8.449533,0.476164,-1.874128,-9.576550
8.482932,0.456561,-1.923062,-9.595405
8.516199,0.486340,-1.867544,-9.591814
8.549627,0.450126,-1.895228,-9.589719
8.582885,0.455663,-1.908097,-9.605581
8.616262,0.439950,-1.888045,-9.632068
8.649593,0.456860,-1.854226,-9.617702
8.682878,0.458506,-1.843601,-9.599296
8.715301,0.473919,-1.871135,-9.591664
8.749523,0.462995,-1.850036,-9.603935
8.782928,0.432019,-1.854525,-9.611267
8.816250,0.459404,-1.867544,-9.630421
8.849571,0.440250,-1.864401,-9.614260
8.882847,0.447881,-1.870836,-9.583883
8.916225,0.429326,-1.857069,-9.601540
8.949568,0.442644,-1.855573,-9.620545
8.982938,0.448480,-1.858715,-9.581788
9.016223,0.442045,-1.858565,-9.589419
9.049519,0.443242,-1.891188,-9.586127
9.082847,0.446235,-1.901513,-9.606928
9.116217,0.440100,-1.871584,-9.606030
9.149539,0.407627,-1.885052,-9.558144
9.182923,0.407927,-1.875625,-9.583434
9.216226,0.392065,-1.881311,-9.585529
9.249560,0.433815,-1.903009,-9.606179
9.282933,0.424088,-1.842703,-9.533453
9.316266,0.413763,-1.864252,-9.619647
9.349520,0.406879,-1.884903,-9.600194
9.382917,0.415708,-1.863803,-9.637904
9.416297,0.398798,-1.850784,-9.588970
9.449522,0.405383,-1.800654,-9.592562
9.482849,0.416606,-1.842105,-9.622041
9.516199,0.421843,-1.867394,-9.643889
9.549523,0.407178,-1.825045,-9.606479
9.582853,0.413015,-1.822651,-9.600493
9.616208,0.397751,-1.858565,-9.600942
9.649624,0.390418,-1.863653,-9.611716
9.682858,0.417205,-1.834024,-9.615308
9.716227,0.398948,-1.815019,-9.622191
9.749572,0.390269,-1.842853,-9.591514
9.782904,0.408974,-1.842703,-9.614260
9.816128,0.392813,-1.834473,-9.623837
9.849630,0.385031,-1.857219,-9.621593
9.882862,0.396255,-1.813972,-9.572360
9.916022,0.373060,-1.828487,-9.596752
9.949589,0.388024,-1.842254,-9.597201
9.982656,0.382487,-1.845247,-9.584780
10.016196,0.402390,-1.814720,-9.597500
10.049520,0.410471,-1.833575,-9.574455
10.082598,0.407029,-1.784492,-9.623089
10.116187,0.372910,-1.861409,-9.596153
10.149577,0.368571,-1.846444,-9.626381
10.182916,0.378148,-1.825045,-9.628476
10.216236,0.326671,-1.804544,-9.602588
10.249620,0.364530,-1.800354,-9.617253
10.282991,0.381739,-1.804245,-9.514299
10.315600,0.367523,-1.831630,-9.571911
10.349509,0.300782,-1.825644,-9.626231
10.382862,0.335649,-1.790927,-9.604533
10.415930,0.326820,-1.763841,-9.599146
10.449556,0.306768,-1.798259,-9.631020
10.482876,0.295096,-1.785240,-9.593909
10.516213,0.321283,-1.760100,-9.539439
10.549525,0.251400,-1.902261,-9.584780
10.582906,0.336098,-1.976185,-9.593160
10.616223,0.396404,-1.851083,-9.407753
10.649581,0.358545,-2.051306,-9.817176
10.682844,0.422442,-1.980973,-9.567422
10.716196,0.404036,-1.993394,-9.610818
10.749649,0.396105,-2.020329,-9.625483
10.782863,0.378746,-2.002223,-9.530759
10.816198,0.328017,-1.972593,-9.594507
10.849520,0.340587,-1.983667,-9.629823
10.882871,0.353157,-1.999828,-9.628177
10.915817,0.313502,-1.989054,-9.600194
10.949522,0.315148,-1.920667,-9.559341
10.982884,0.310659,-1.938325,-9.579693
11.016274,0.326222,-1.971546,-9.589419
11.049564,0.339091,-1.967206,-9.587773
11.082179,0.302877,-1.951194,-9.578495
11.116239,0.311856,-1.980674,-9.581488
11.149618,0.284920,-1.969600,-9.613213
11.182887,0.297490,-1.945658,-9.547370
11.216218,0.283873,-1.925157,-9.593011
11.249575,0.279383,-1.961669,-9.574006
11.282837,0.253046,-1.917225,-9.587773
11.316182,0.273697,-1.928449,-9.596752
11.349520,0.290158,-1.935781,-9.600792
11.382880,0.281628,-1.926054,-9.590018
11.416217,0.279982,-1.952840,-9.561286
11.449545,0.290457,-1.920518,-9.607676
11.482851,0.255889,-1.959125,-9.590317
11.516206,0.275642,-1.975137,-9.604683
11.549528,0.294647,-1.916328,-9.614559
11.582166,0.261726,-1.917225,-9.598847
11.616162,0.244666,-1.949848,-9.541833
11.649517,0.285070,-1.930244,-9.611417
11.682894,0.279234,-1.936829,-9.581488
11.716185,0.293749,-1.955235,-9.568619
11.749562,0.294797,-1.908546,-9.548268
11.782965,0.307816,-1.888494,-9.606778
11.816289,0.274445,-1.962867,-9.640896
11.849522,0.304523,-1.952541,-9.612913
11.882883,0.296892,-1.891188,-9.559790
11.916199,0.288063,-1.900016,-9.576400
11.949549,0.285668,-1.920069,-9.607975
11.982856,0.295246,-1.928149,-9.617851
12.015575,0.293001,-1.908995,-9.585678
12.049542,0.289858,-1.867993,-9.574754
12.081994,0.297939,-1.872033,-9.584930
12.116253,0.298238,-1.894031,-9.594956
12.149526,0.283424,-1.874876,-9.613213
12.183057,0.285219,-1.872033,-9.606928
12.216190,0.287015,-1.829235,-9.615308
12.249552,0.293749,-1.855722,-9.614559
12.282925,0.297640,-1.857368,-9.593609
12.316261,0.278785,-1.852430,-9.634911
12.349573,0.292253,-1.789430,-9.634312
12.382785,0.299436,-1.811428,-9.651820
12.416195,0.265317,-1.868741,-9.604833
12.449549,0.272051,-1.804245,-9.621144
12.482869,0.266813,-1.811727,-9.574006
12.516191,0.250502,-1.793321,-9.593759
12.549512,0.263821,-1.785839,-9.629374
12.582887,0.267113,-1.809333,-9.624585
12.616187,0.248407,-1.797212,-9.645236
12.649546,0.252148,-1.828487,-9.621293
12.682863,0.271452,-1.785839,-9.615457
12.715474,0.282526,-1.825045,-9.644937
12.749538,0.257087,-1.844649,-9.620096
12.782156,0.264718,-1.799456,-9.594507
12.815364,0.235388,-1.802749,-9.584032
12.848608,0.273248,-1.801701,-9.615607
12.882964,0.248557,-1.812326,-9.636407
12.916175,0.255889,-1.857069,-9.648678
12.949530,0.261726,-1.799008,-9.616056
12.982827,0.258134,-1.793920,-9.585828
13.016191,0.234939,-1.831630,-9.593310
13.049528,0.249904,-1.879964,-9.604833
13.082847,0.237334,-1.828786,-9.582087
13.116198,0.224764,-1.835820,-9.621742
13.149569,0.245564,-1.823998,-9.574156
13.183027,0.235987,-1.834922,-9.618300
13.215593,0.227757,-1.848539,-9.599445
13.249517,0.237483,-1.843751,-9.642692
13.282854,0.220873,-1.862606,-9.630421
13.316342,0.222669,-1.824447,-9.607676
13.349520,0.229253,-1.811578,-9.581488
13.382869,0.219825,-1.849587,-9.647930
13.416271,0.206807,-1.852580,-9.605281
13.449508,0.217431,-1.857668,-9.634312
13.482920,0.224614,-1.841656,-9.600044
13.516217,0.206807,-1.841805,-9.578795
13.549508,0.216384,-1.838813,-9.632666
13.582984,0.207405,-1.843900,-9.604982
13.616221,0.223716,-1.865599,-9.619049
13.649529,0.190944,-1.826392,-9.611566
13.682856,0.210398,-1.841955,-9.630421
13.715422,0.213690,-1.862905,-9.582685
13.749523,0.214738,-1.819359,-9.612913
13.782912,0.193937,-1.853029,-9.611866
13.816313,0.204562,-1.841955,-9.600643
13.849583,0.189448,-1.820406,-9.614110
13.882859,0.193788,-1.856470,-9.605880
13.916201,0.188400,-1.843003,-9.613512
13.949535,0.203963,-1.840758,-9.632666
13.982882,0.213540,-1.830133,-9.623239
14.016189,0.199474,-1.829684,-9.623239
14.049586,0.201120,-1.854824,-9.628177
14.082919,0.189448,-1.847193,-9.634013
14.116180,0.187203,-1.819209,-9.655262
14.149518,0.180320,-1.793620,-9.585379
14.182978,0.195583,-1.861409,-9.587474
14.215252,0.195883,-1.840608,-9.630272
14.249509,0.206507,-1.844499,-9.629224
14.282876,0.197828,-1.839860,-9.614260
14.316193,0.208602,-1.830582,-9.614260
14.349529,0.205609,-1.837615,-9.594956
14.382847,0.183911,-1.842853,-9.599445
14.416230,0.184360,-1.840758,-9.629524
14.449550,0.181367,-1.850185,-9.629224
14.482301,0.196631,-1.837166,-9.609920
14.516224,0.196481,-1.830732,-9.585379
14.549596,0.179123,-1.831480,-9.611118
14.582859,0.195583,-1.850485,-9.625483
14.616244,0.198576,-1.836568,-9.617552
14.649617,0.182714,-1.811428,-9.612614
14.682857,0.194985,-1.819060,-9.598548
14.716208,0.162812,-1.823699,-9.625483
14.749529,0.196032,-1.826243,-9.634911
14.782856,0.178524,-1.800803,-9.631020
14.816180,0.179422,-1.808435,-9.603486
14.849543,0.195733,-1.835820,-9.611566
14.882850,0.202916,-1.807537,-9.612315
14.916242,0.180469,-1.819958,-9.612015
14.949544,0.167450,-1.833575,-9.617702
14.982881,0.173436,-1.826841,-9.646284
15.016197,0.164907,-1.786737,-9.583434
15.049534,0.189298,-1.808285,-9.605730
15.082882,0.191543,-1.825195,-9.611866
15.116211,0.217431,-1.834623,-9.626231
15.149556,0.212044,-1.838663,-9.628925
15.182991,0.186904,-1.817713,-9.604833
15.216215,0.227757,-1.816815,-9.607526
15.249516,0.186754,-1.892385,-9.646433
15.282831,0.233144,-1.823250,-9.703597
15.316274,0.185707,-1.969152,-9.651820
15.349578,0.175830,-1.830732,-9.658704
15.382880,0.241524,-1.791974,-9.557396
15.415720,0.167002,-1.788682,-9.575503
15.449511,0.177028,-1.884005,-9.570115
15.482938,0.167301,-1.824746,-9.585229
15.516197,0.166253,-1.781350,-9.599745
15.549605,0.195733,-1.846594,-9.595704
15.582884,0.190645,-1.816516,-9.632666
15.616201,0.177477,-1.849886,-9.625334
15.649586,0.163709,-1.814720,-9.626231
15.682894,0.225063,-1.906601,-9.593310
15.716191,0.281927,-1.831480,-9.641794
15.749510,0.374856,-1.850335,-9.649426
15.782942,0.464791,-1.682585,-9.713623
15.816198,0.388623,-1.810380,-9.571612
15.849576,0.186156,-1.743340,-9.272476
15.882857,0.271303,-1.894629,-9.601241
15.915613,0.309761,-2.222946,-9.580441
15.949610,0.515819,-2.448458,-9.841867
15.982858,0.559515,-2.235366,-9.576101
16.016208,0.469131,-1.922014,-9.562184
16.049590,0.413314,-1.801103,-9.638353
16.082896,0.418252,-1.797810,-9.695516
16.116232,0.421095,-1.980225,-9.795627
16.149542,0.399098,-2.024669,-9.559640
16.182939,0.400145,-1.956133,-9.465964
16.216327,0.399846,-1.878618,-9.693870
16.249535,0.381739,-1.820107,-9.498586
16.282955,0.333853,-1.741844,-9.499185
16.316209,0.283274,-1.705630,-9.614859
16.349599,0.267113,-1.731818,-9.635659
16.382907,0.268011,-1.759352,-9.568020
16.415535,0.323229,-1.806490,-9.629673
16.449588,0.373509,-1.808585,-9.670227
16.482944,0.385031,-1.810231,-9.594507
16.515560,0.356449,-1.820257,-9.585379
16.549605,0.259780,-1.807836,-9.605730
16.582890,0.247958,-1.729872,-9.680402
16.616215,0.277737,-1.792573,-9.633714
16.649526,0.277887,-1.809483,-9.569517
16.682904,0.299735,-1.733614,-9.615308
16.716212,0.343879,-1.626170,-9.684293
16.749571,0.367373,-1.615695,-9.719908
16.782849,0.290906,-1.604771,-9.607227
16.816253,0.224764,-1.652956,-9.548118
16.849603,0.190047,-1.770875,-9.477187
16.882860,0.208004,-1.833126,-9.621443
16.916307,0.187503,-1.805293,-9.739212
16.949574,0.155928,-1.789281,-9.686238
16.982858,0.282825,-1.687224,-9.722153
17.015404,0.361388,-1.746632,-9.644039
17.049610,0.401642,-1.907499,-9.669927
17.082906,0.360191,-1.866796,-9.666186
17.116213,0.303476,-1.822651,-9.643889
17.149442,0.193339,-1.762944,-9.506367
17.182749,0.229103,-1.807088,-9.658405
17.216042,0.246612,-1.882359,-9.706440
17.249317,0.138420,-1.765188,-9.706739
17.282524,0.060156,-1.662982,-9.432444
17.316246,0.263372,-1.922912,-9.616505
17.349573,0.410920,-1.908995,-9.569966
17.382965,0.179721,-1.871285,-9.406256
17.416205,0.183612,-1.819509,-9.524325
17.449540,0.289110,-1.856470,-9.628326
17.482892,0.178973,-2.049360,-9.681450
17.515165,0.126598,-2.073153,-9.698359
17.549529,0.189149,-1.903907,-9.551709
17.582896,0.159220,-1.901812,-9.485717
17.616203,0.045940,-1.808884,-9.295371
17.649574,0.187952,-1.737953,-9.661697
17.682862,0.313801,-1.784492,-9.835582
17.716277,0.328317,-1.749476,-9.783806
17.749590,0.369917,-1.799307,-9.514448
17.782929,0.430523,-1.889841,-9.675913
17.816202,0.435461,-1.932190,-9.738015
17.849571,0.273248,-1.938624,-9.614559
17.882928,0.185557,-1.854824,-9.539888
17.916340,0.135128,-1.817264,-9.640896
17.949520,0.233892,-1.735260,-9.588372
17.982883,0.406430,-1.800205,-9.731131
18.016305,0.467185,-1.848240,-9.773779
18.049517,0.301082,-1.841207,-9.351936
18.082878,0.202916,-1.806789,-9.171167
18.116244,0.160417,-1.804544,-9.478684
18.149514,0.223417,-1.902111,-9.864912
18.182931,0.247509,-1.971695,-9.726043
18.216107,0.280730,-1.983966,-9.622341
18.249532,0.284771,-1.945059,-9.483173
18.282896,0.340288,-1.908546,-9.649426
18.316244,0.409722,-1.869040,-9.747891
18.349513,0.382787,-1.932639,-9.660649
18.382908,0.386528,-1.894180,-9.544975
18.416237,0.488584,-1.920667,-9.537493
18.449540,0.470777,-1.914382,-9.544377
18.482928,0.325773,-1.721642,-9.502776
18.516251,0.154731,-1.649065,-9.475691
18.549526,0.252448,-1.865898,-9.806701
18.582869,0.402091,-2.040232,-9.841568
18.616250,0.474817,-2.081084,-9.550512
18.649510,0.499807,-1.917974,-9.419126
18.682853,0.421993,-1.806939,-9.492900
18.716255,0.331609,-1.821753,-9.714820
18.749596,0.328766,-1.794069,-9.709433
18.782892,0.370067,-1.894629,-9.710630
18.816194,0.625657,-1.776411,-9.365553
18.849517,0.589892,-1.843900,-8.709369
18.882904,0.538715,-1.988306,-8.873827
18.916194,0.302877,-2.164286,-9.997496
18.949616,-0.027085,-1.988156,-11.423892
18.982867,0.039057,-1.417418,-10.835795
19.015869,0.277139,-1.223481,-9.468807
19.049529,0.615182,-1.378810,-8.310122
19.082911,0.664564,-1.626619,-8.192353
19.116195,0.462995,-2.122386,-9.398475
19.149592,0.321882,-2.279810,-11.026141
19.182887,0.337594,-2.055795,-11.060110
19.216192,0.388623,-1.683633,-9.849050
19.249507,0.361986,-1.487002,-8.547156
19.282897,0.323977,-1.499123,-8.693208
19.316141,0.240476,-1.579781,-9.369893
19.349524,0.232395,-1.762944,-10.110925
19.382771,0.240776,-1.889242,-10.233632
19.416199,0.299735,-1.760250,-9.924769
19.449261,0.285668,-1.539527,-9.367798
19.482515,0.275792,-1.538928,-9.300608
19.516289,0.243469,-1.620932,-9.589419
19.549522,0.235388,-1.782846,-9.752380
19.582891,0.272051,-1.759502,-9.717514
19.616267,0.328017,-1.696053,-9.621593
19.649543,0.424986,-1.642930,-9.600792
19.682930,0.401193,-1.705331,-9.374382
19.716205,0.301082,-1.802449,-9.501729
19.749553,0.258583,-1.720894,-9.991061
19.782853,0.215486,-1.637692,-9.763454
19.816207,0.210398,-1.626619,-9.609023
19.849606,0.202617,-1.566462,-9.528215
19.882860,0.173436,-1.611954,-9.741157
19.916188,0.276540,-1.665975,-9.782908
19.949528,0.343431,-1.764290,-9.445313
19.982851,0.380392,-1.819658,-9.350140
20.016227,0.342533,-1.767283,-9.584631
20.049511,0.204712,-1.647718,-9.840221
20.082907,0.078413,-1.584569,-9.964873
20.116259,0.160717,-1.436273,-9.967567
20.149549,0.266215,-1.444054,-9.369893
20.182924,0.294647,-1.641134,-9.215911
20.216334,0.199175,-1.779404,-9.503375
20.249514,-0.008679,-1.737205,-10.273737
20.282902,-0.004340,-1.613001,-10.584246
20.316246,0.108940,-1.439416,-9.982232
20.349592,0.253495,-1.414575,-9.149768
20.382730,0.537517,-1.408439,-8.774015
20.416192,0.474967,-1.651310,-8.719844
20.449504,0.140515,-2.025268,-9.624286
20.482813,-0.014815,-1.962418,-10.434004
20.516187,-0.054620,-1.747830,-10.458097
20.549619,-0.011672,-1.578434,-9.791437
20.582979,0.229103,-1.571101,-9.219652
20.616128,0.242871,-1.546410,-9.094251
20.649488,0.189897,-1.575142,-9.364805
20.682853,0.166403,-1.626918,-9.897684
20.716180,-0.076767,-1.679443,-10.126937
20.749521,-0.558767,-1.814570,-11.191497
20.782871,1.232459,-0.124952,-7.741179
20.816216,0.579268,-1.310423,-6.507523
20.849549,0.093228,-3.540552,-11.436462
20.882659,0.581064,-2.516845,-12.186622
20.916276,0.516867,-1.042113,-8.637690
20.949234,0.235688,-1.489696,-8.176640
20.982928,-0.074522,-2.075248,-9.228780
21.016205,0.065693,-1.644726,-9.478983
21.049478,0.154132,-1.432831,-9.782159
21.082838,0.050879,-1.607764,-9.290433
21.116194,0.053871,-1.512292,-9.000125
21.149514,0.143807,-1.394672,-9.458182
21.182848,0.039655,-1.529650,-9.827801
21.216249,0.223267,-1.478622,-10.084588
21.249647,0.422741,-1.536683,-10.117659
21.282885,0.507439,-1.808285,-9.708236
21.316196,0.604408,-1.676450,-9.473745
21.349594,0.451473,-1.390183,-9.393387
21.382901,0.328915,-1.252811,-9.701951
21.416257,0.384433,-1.368485,-10.070970
21.449632,0.399996,-1.528154,-9.659452
21.482446,0.283124,-1.739749,-8.986209
21.516228,-0.111484,-2.163837,-9.750435
21.549589,-0.185408,-1.936529,-10.857194
21.582937,0.067639,-0.866283,-10.134569
21.616246,0.061054,-0.537368,-9.133008
21.649587,0.263372,-0.620120,-8.497924
21.682910,0.865834,-1.332870,-8.911387
21.716257,0.797597,-2.130167,-9.454292
21.749588,0.489632,-2.546324,-10.217171
21.782924,0.401791,-1.862456,-10.809009
21.816320,0.326671,-1.039420,-10.430413
21.849609,0.184360,-0.556821,-9.685939
21.882919,0.022895,-0.479157,-9.119989
21.916188,0.180619,-0.804032,-9.522828
21.949629,0.227457,-1.344692,-9.900677
21.982828,0.499059,-1.882658,-9.556498
22.016185,0.714096,-2.051156,-9.665438
22.049571,0.760934,-1.784791,-9.609471
22.082855,0.207255,-1.335114,-10.091920
22.116210,0.078263,-0.727265,-10.005127
22.149650,0.186006,-0.643914,-9.679355
22.182833,0.376352,-0.991235,-9.323653
22.216176,0.402839,-1.327034,-9.808946
22.249583,0.461798,-1.475031,-10.050769
22.282966,0.525546,-1.557185,-10.125590
22.316183,0.355701,-1.524113,-9.345501
22.349593,0.528689,-1.412779,-8.938173
22.382829,0.025290,-1.535636,-9.878829
22.416220,0.282227,-1.135191,-10.764865
22.449548,0.310659,-0.939159,-9.595704
22.482862,0.806875,-1.494634,-9.101883
22.516178,0.218329,-1.651011,-9.014042
22.549267,-0.119265,-1.865748,-10.864228
22.582869,0.417803,-1.443905,-10.107184
22.616192,0.786224,-1.195797,-8.313414
22.649205,0.463295,-1.316858,-8.079372
22.682827,0.401043,-1.593997,-10.276280
22.716205,0.306169,-1.181431,-9.888256
22.749544,0.779191,-1.514387,-10.330451
22.782889,0.034268,-1.753666,-9.365703
22.816205,-0.408675,-1.541921,-10.164048
22.849509,0.128094,-1.384646,-11.236240
22.882880,0.338193,-1.217046,-8.653852
22.916193,1.028496,-1.050045,-8.167213
22.949537,0.412715,-1.734212,-8.592648
22.982913,0.426782,-1.680341,-10.503588
23.016151,0.292103,-1.550900,-10.510921
23.049565,0.434264,-1.583522,-10.479795
23.082852,0.389670,-1.380606,-9.090360
23.116163,0.268759,-1.595194,-9.250478
23.149615,0.015563,-1.398114,-9.550961
23.182835,0.230001,-1.303689,-9.874938
23.216189,0.218778,-1.475629,-9.664839
23.249523,0.249904,-1.377763,-9.807898
23.282842,0.018107,-1.391380,-9.739960
23.316184,0.078862,-1.400508,-9.752680
23.349576,0.220274,-1.374321,-9.673668
23.382365,0.118517,-1.379858,-9.487064
23.416217,0.077964,-1.421907,-9.509211
23.449605,0.170593,-1.474881,-9.500531
23.482822,0.138270,-1.511693,-9.721105
23.516180,0.176130,-1.536085,-9.899629
23.549537,0.174184,-1.515584,-9.800715
23.582844,0.168648,-1.288126,-9.649276
23.616152,0.054171,-1.379558,-9.593909
23.649611,0.085147,-1.411582,-9.618300
23.682932,0.149493,-1.506156,-9.550063
23.716197,0.212343,-1.479520,-9.602738
23.749546,0.159070,-1.517379,-9.711977
23.782296,0.190346,-1.540574,-9.651671
23.816219,0.216683,-1.581876,-9.626531
23.849497,0.164009,-1.381653,-9.659303
23.882860,-0.048484,-1.309076,-9.542731
23.916323,-0.046838,-1.362649,-9.607825
23.949644,0.143957,-1.450190,-9.748789
23.982936,0.247061,-1.505408,-9.817176
24.016306,0.230151,-1.450339,-9.802361
24.049532,0.215336,-1.366539,-9.774528
24.082889,0.131985,-1.341250,-9.642543
24.116256,0.094874,-1.293214,-9.628626
24.149515,0.119565,-1.424152,-9.689082
24.182897,0.148745,-1.449741,-9.696863
24.216183,0.145603,-1.387040,-9.695217
24.249481,0.167899,-1.357262,-9.741307
24.282877,0.143657,-1.314314,-9.724697
24.316235,0.094574,-1.316559,-9.697462
24.349570,0.105498,-1.296058,-9.658704
24.382822,0.148147,-1.293663,-9.669478
24.416269,0.134379,-1.348283,-9.669628
24.449506,0.109090,-1.335713,-9.776473
24.482932,0.104301,-1.354418,-9.728587
24.516304,0.078413,-1.339304,-9.719160
24.549593,0.094425,-1.275257,-9.660350
24.582923,0.055518,-1.235303,-9.628925
24.616176,0.104301,-1.247274,-9.736818
24.649534,0.117320,-1.301744,-9.880176
24.682846,0.055966,-1.381354,-9.857280
24.716187,-0.020202,-1.371627,-10.011113
24.749515,0.050579,-1.127560,-9.871496
24.782509,0.128843,-1.112146,-9.502177
24.816172,0.117470,-1.220488,-9.489907
24.849561,0.032173,-1.438218,-9.752231
24.882850,0.096969,-1.510346,-9.806851
24.916187,0.243918,-1.327782,-9.941978
24.949635,0.406131,-1.148959,-9.588073
24.982906,0.261875,-1.173500,-9.434389
25.016192,-0.133930,-1.482812,-9.497090
25.049580,-0.121061,-1.613151,-9.710780
25.082922,-0.016311,-1.585766,-9.784105
25.116190,-0.034867,-1.430736,-9.612464
25.149160,-0.044594,-1.457822,-9.588970
25.182467,0.031126,-1.536983,-9.613063
25.216271,0.093078,-1.573795,-9.626381
25.249616,0.080059,-1.587412,-9.566973
25.282265,0.007931,-1.602377,-9.489757
25.316234,0.071679,-1.610308,-9.627578
25.349579,0.143059,-1.655650,-9.696863
25.382846,0.151738,-1.619885,-9.722751
25.416251,0.058959,-1.625272,-9.614110
25.449491,0.068387,-1.567510,-9.620395
25.482910,0.108341,-1.601030,-9.626830
25.516242,0.094275,-1.591453,-9.637904
25.549485,0.071080,-1.580080,-9.623987
25.582934,0.064795,-1.539078,-9.614859
25.616176,0.071679,-1.558531,-9.662894
25.649577,0.055817,-1.602826,-9.707188
25.682966,0.099513,-1.579631,-9.665438
25.716172,0.074672,-1.540424,-9.614410
25.749573,0.055966,-1.548954,-9.656010
25.782123,0.095173,-1.548056,-9.729485
25.816211,0.052974,-1.529800,-9.754176
25.849579,0.090983,-1.517828,-9.744449
25.882565,0.088439,-1.463658,-9.669778
25.916279,0.062102,-1.511394,-9.654813
25.949533,0.036513,-1.507653,-9.700305
25.982855,0.059708,-1.562422,-9.718262
26.016208,0.022596,-1.533990,-9.691925
26.049592,0.038758,-1.530099,-9.642243
26.082924,0.034418,-1.531596,-9.649276
26.116263,0.026038,-1.551947,-9.663044
26.149584,0.004190,-1.537132,-9.605581
26.182911,0.030378,-1.558980,-9.671873
26.216152,0.039655,-1.539976,-9.679055
26.249632,0.049981,-1.609410,-9.720058
26.281924,0.026337,-1.583222,-9.657656
26.316184,-0.045342,-1.527106,-9.565925
26.349584,0.027684,-1.574094,-9.614859
26.382277,0.038608,-1.562123,-9.617851
26.416181,0.051178,-1.597139,-9.615457
26.449551,0.053572,-1.580678,-9.645386
26.482850,0.015114,-1.605968,-9.659901
26.516270,0.027983,-1.566911,-9.706590
26.549589,0.037560,-1.583671,-9.653317
26.583083,-0.015862,-1.541622,-9.623388
26.616353,0.001048,-1.558980,-9.616954
26.649501,0.010176,-1.553593,-9.612315
26.682865,-0.077964,-1.558531,-9.554553
26.716197,-0.066890,-1.560177,-9.530610
26.749540,0.062401,-1.515883,-9.616954
26.782845,0.304823,-1.588909,-9.796824
26.816272,0.205460,-1.702787,-9.805354
26.849581,0.134679,-1.646222,-9.799967
26.882118,0.101159,-1.648317,-9.715269
26.916259,-0.016910,-1.635448,-9.510109
26.949599,-0.020351,-1.674505,-9.558743
26.982842,-0.001197,-1.600880,-9.630870
27.016190,0.072278,-1.620184,-9.671424
27.049611,0.070183,-1.619885,-9.752380
27.082873,0.092629,-1.560177,-9.805204
27.116186,0.061354,-1.577087,-9.779915
27.149546,-0.075270,-1.542370,-9.671124
27.182872,-0.055368,-1.534588,-9.692673
27.216259,-0.130489,-1.587113,-9.552757
27.249531,-0.096071,-1.546560,-9.611866
27.282938,-0.029929,-1.523365,-9.667832
27.316216,-0.021998,-1.579781,-9.736967
27.349595,-0.097418,-1.550750,-9.683096
27.381942,-0.095173,-1.507653,-9.678906
27.416247,-0.117769,-1.516033,-9.637305
27.449636,-0.098764,-1.497926,-9.666336
27.482861,-0.112681,-1.483111,-9.643740
27.516254,-0.125251,-1.473983,-9.690279
27.548598,-0.109090,-1.505109,-9.686987
27.582854,-0.108341,-1.475928,-9.675015
27.616260,-0.098016,-1.474582,-9.705542
27.649605,-0.112232,-1.514536,-9.699856
27.682841,-0.113429,-1.467249,-9.667383
27.716261,-0.088140,-1.492090,-9.698808
27.749529,-0.119565,-1.498225,-9.679355
27.782921,-0.122857,-1.532194,-9.707937
27.816182,-0.153983,-1.548056,-9.656160
27.849630,-0.153534,-1.530249,-9.633714
27.882854,-0.140515,-1.564068,-9.651671
27.916294,-0.137522,-1.570503,-9.676661
27.949647,-0.136474,-1.558232,-9.654514
27.982908,-0.129142,-1.566313,-9.655711
28.016189,-0.169246,-1.535037,-9.639999
28.048895,-0.153534,-1.517529,-9.644189
28.082940,-0.131536,-1.545662,-9.741457
28.116211,-0.119116,-1.638291,-9.752829
28.149545,-0.138719,-1.660737,-9.663193
28.182908,-0.165954,-1.600282,-9.608274
28.216287,-0.119864,-1.537731,-9.604833
28.249614,-0.160866,-1.559130,-9.659901
28.282906,-0.127197,-1.584868,-9.748789
28.316196,-0.159968,-1.586515,-9.726492
28.349576,-0.164607,-1.645474,-9.610220
28.382940,-0.152486,-1.827889,-9.631319
28.416276,0.059558,-1.851682,-9.764202
28.449539,0.329364,-1.456924,-9.510258
28.482769,-0.042798,-1.699196,-9.397427
28.516047,-0.156527,-1.790029,-9.335924
28.549526,0.206208,-1.891487,-9.600493
28.582853,0.233443,-1.923062,-9.693870
28.615798,0.216533,-2.018534,-9.852791
28.649480,0.090833,-1.936829,-9.958289
28.682840,0.077665,-1.568707,-9.851743
28.716251,0.045491,-1.488498,-9.636407
28.749548,0.012420,-1.638890,-9.483173
28.782931,0.046090,-1.782247,-9.644189
28.816266,0.030976,-1.813074,-9.525222
28.849557,0.074223,-1.788383,-9.507116
28.882858,0.097418,-1.806490,-9.593759
28.916223,0.111484,-1.823100,-9.610818
28.950214,0.163410,-1.872183,-9.696414
28.982933,0.188550,-1.980075,-9.822862
29.016238,0.133930,-1.966608,-9.617552
29.049073,0.133482,-1.900914,-9.505919
29.082398,0.050430,-1.869040,-9.531358
29.115805,0.027684,-1.762495,-9.645386
29.149150,-0.016910,-1.653555,-9.733675
29.182551,-0.021998,-1.724934,-9.706739
29.215729,-0.078862,-1.852580,-9.396081
29.249684,0.000449,-1.898969,-9.503375
29.282869,0.014216,-2.017935,-9.563830
29.316221,0.020351,-2.086172,-9.648678
29.349527,0.051178,-1.889841,-9.612913
29.382883,0.037261,-1.753366,-9.463121
29.416197,-0.064496,-1.747381,-9.465365
29.449504,-0.027385,-1.803347,-9.655711
29.482844,0.027235,-1.855573,-9.789193
29.516230,0.061503,-1.889392,-9.733077
29.549485,0.066741,-1.920817,-9.467161
29.582862,0.077515,-1.906002,-9.515795
29.616189,0.048185,-1.898071,-9.575802
29.649500,0.024990,-1.801103,-9.677709
29.682921,0.071978,-1.730471,-9.722302
29.716201,0.054620,-1.774167,-9.720806
29.749513,0.093676,-1.746333,-9.634462
29.782978,0.084548,-1.755761,-9.498736
29.816149,0.117769,-1.868891,-9.555750
29.849564,0.084249,-1.844050,-9.612764
29.882848,0.056864,-1.724785,-9.764352
29.916188,0.018256,-1.626619,-9.626980
29.949532,0.056116,-1.630809,-9.572510
29.982917,0.133033,-1.694407,-9.658405
30.016246,0.173885,-1.813373,-9.671573
30.049497,0.215187,-1.924408,-9.768542
30.082853,0.125251,-1.907050,-9.647331
30.116217,0.065095,-1.862606,-9.571911
30.149488,0.047886,-1.597887,-9.448306
30.182812,0.068088,-1.518577,-9.622191
30.216248,0.144405,-1.613301,-9.758366
30.249516,0.155180,-1.922762,-9.796675
30.282869,0.140365,-1.865449,-9.511904
30.316171,0.132584,-1.788383,-9.482125
30.349296,0.059857,-1.713412,-9.639250
30.382835,0.052076,-1.686925,-9.746844
30.416312,0.112382,-1.723737,-9.782608
30.449589,0.169246,-1.779554,-9.620844
30.482969,0.146500,-1.772072,-9.490655
30.516194,0.105349,-1.756659,-9.550811
30.549486,0.116572,-1.753666,-9.773630
30.582830,0.087990,-1.760400,-9.718412
30.616259,0.113280,-1.818760,-9.713473
30.649482,0.120313,-1.764440,-9.465665
30.682595,0.097118,-1.743789,-9.505470
30.716169,0.040703,-1.732117,-9.543629
30.749514,0.067639,-1.688571,-9.827950
30.782869,0.166104,-1.719397,-9.787247
30.816153,0.169097,-1.813673,-9.581638
30.849533,0.176279,-1.849138,-9.506218
30.883004,0.177925,-1.833126,-9.638652
30.915734,0.161614,-1.838962,-9.734872
30.949510,0.073924,-1.787934,-9.723350
30.982964,-0.017059,-1.699794,-9.551709
31.016215,0.019454,-1.650711,-9.474344
31.049538,0.087691,-1.779704,-9.593160
31.082824,0.093377,-1.891337,-9.642842
31.116149,0.071230,-1.928000,-9.665288
31.149520,0.108790,-1.795266,-9.658105
31.182794,0.064646,-1.739599,-9.505021
31.216199,0.085596,-1.727478,-9.576999
31.249490,0.123156,-1.819060,-9.679205
31.282850,0.112980,-1.832228,-9.726642
31.316211,0.085446,-1.798110,-9.591664
31.349523,0.059857,-1.758604,-9.540336
31.382875,0.029779,-1.816516,-9.522679
31.416304,0.018556,-1.861409,-9.650025
31.449435,0.121660,-1.809632,-9.798471
31.482897,0.132434,-1.778955,-9.561885
31.516316,0.119116,-1.793770,-9.500831
31.549559,0.108341,-1.798708,-9.677409
31.582877,0.086793,-1.765039,-9.707188
31.616221,0.130189,-1.735409,-9.684443
31.649530,0.092330,-1.844349,-9.606179
31.682854,0.139168,-1.932938,-9.622790
31.716217,0.135427,-1.938325,-9.674417
31.749597,0.080358,-1.834174,-9.609023
31.782849,0.074522,-1.674804,-9.522230
31.816235,0.041900,-1.656547,-9.544227
31.849509,0.119116,-1.847193,-9.632666
31.882843,0.163709,-2.048911,-9.729784
31.916236,0.170892,-2.011500,-9.666037
31.949548,0.132434,-1.842404,-9.613661
31.982840,0.093377,-1.702189,-9.571313
32.016229,0.093676,-1.656398,-9.612913
32.049507,0.069584,-1.823549,-9.600493
32.082935,0.114926,-1.928748,-9.616205
32.116218,0.085147,-1.936829,-9.527766
32.149642,0.017508,-1.889392,-9.532555
32.182943,-0.016012,-1.774616,-9.673219
32.216190,0.020651,-1.786886,-9.683694
32.249517,0.075270,-1.862007,-9.609322
32.282937,0.172538,-1.908247,-9.512503
32.316315,0.175531,-1.885052,-9.662445
32.349593,0.137522,-1.830732,-9.697611
32.382886,0.093976,-1.825943,-9.562633
32.416189,0.118517,-1.850784,-9.612913
32.449557,0.077515,-1.902860,-9.481527
32.481954,0.055667,-1.905853,-9.741157
32.516184,0.052824,-1.817863,-9.558443
32.549277,0.068088,-1.862157,-9.587025
32.582812,0.031425,-1.885202,-9.462073
32.616190,0.054021,-1.834174,-9.649875
32.649479,0.113729,-1.782996,-9.623388
32.682841,0.132733,-1.841656,-9.620096
32.716227,0.157724,-1.833425,-9.611566
32.749542,0.139916,-1.851083,-9.588821
32.782931,0.123755,-1.871135,-9.661996
32.816176,0.125251,-1.857219,-9.735172
32.849554,0.108192,-1.850485,-9.591514
32.882922,0.112681,-1.873829,-9.596602
32.916213,0.089636,-1.811727,-9.605730
32.949593,0.080658,-1.784791,-9.639400
32.982855,0.111783,-1.802449,-9.673219
33.016189,0.116572,-1.826841,-9.623239
33.049580,0.122857,-1.834922,-9.591664
33.082869,0.114178,-1.839561,-9.638951
33.116260,0.110885,-1.851981,-9.651072
33.149564,0.095921,-1.867694,-9.608574
33.182968,0.120014,-1.831929,-9.655711
33.216179,0.086194,-1.833276,-9.589120
33.249574,0.068836,-1.826542,-9.600942
33.282882,0.067190,-1.801402,-9.594657
33.316219,0.062850,-1.852430,-9.663044
33.349588,0.079161,-1.826243,-9.593460
33.382902,0.098315,-1.861409,-9.649875
33.416219,0.088888,-1.876672,-9.649576
33.449609,0.116572,-1.870238,-9.457883
33.482841,0.068686,-1.916178,-9.451149
33.516188,0.082154,-1.803646,-9.673369
33.549604,0.062251,-1.789580,-9.716616
33.582930,0.055218,-1.829535,-9.646733
33.616208,0.105349,-1.851682,-9.569517
33.649589,0.100261,-1.886100,-9.573856
33.682728,0.124503,-1.902111,-9.615158
33.716214,0.096969,-1.864551,-9.611866
33.749571,0.084548,-1.841805,-9.661847
33.782852,0.053273,-1.813673,-9.661398
33.816229,0.104002,-1.848240,-9.607227
33.849499,0.104900,-1.874428,-9.531657
33.882879,0.133930,-1.871135,-9.588821
33.916190,0.096669,-1.862157,-9.711079
33.949558,0.098016,-1.835221,-9.626680
33.982913,0.117320,-1.870537,-9.576251
34.016152,0.104002,-1.857069,-9.584481
34.049635,0.093527,-1.830732,-9.649875
34.082878,0.087092,-1.802599,-9.596453
34.116207,0.106845,-1.819658,-9.603336
34.149529,0.122109,-1.900615,-9.486166
34.182345,0.135726,-1.952691,-9.588521
34.216227,0.169097,-1.856321,-9.766148
34.249638,0.139168,-1.837166,-9.730383
34.282838,0.138120,-1.886848,-9.563980
34.316212,0.169994,-1.868891,-9.569666
34.349516,0.105199,-1.863204,-9.542731
34.382846,0.095023,-1.856470,-9.688483
34.416191,0.108192,-1.841506,-9.633265
34.449501,0.117769,-1.895826,-9.514897
34.482988,0.175082,-1.908546,-9.549914
34.516242,0.149793,-1.933387,-9.683245
34.549537,0.129142,-1.853627,-9.713623
34.582838,0.128843,-1.846145,-9.651072
34.616219,0.115375,-1.847641,-9.508014
34.649520,0.119714,-1.840459,-9.572510
34.682165,0.089038,-1.852729,-9.596004
34.716191,0.130489,-1.892684,-9.674716
34.749575,0.137672,-1.963465,-9.548417
34.782843,0.149493,-1.953589,-9.498137
34.816181,0.147997,-1.888644,-9.667084
34.849502,0.113878,-1.875924,-9.697462
34.882888,0.122857,-1.895826,-9.652419
34.916189,0.114028,-1.871884,-9.528515
34.949605,0.093377,-1.865599,-9.491702
34.982921,0.099662,-1.855273,-9.603635
35.016184,0.093826,-1.896724,-9.636258
35.049561,0.100859,-1.902710,-9.714670
35.082803,0.126598,-1.813822,-9.572959
35.116235,0.114926,-1.853926,-9.521481
35.149535,0.126897,-1.904655,-9.578196
35.182283,0.148745,-1.908995,-9.783506
35.216162,0.155778,-1.824297,-9.638502
35.249522,0.133332,-1.811278,-9.529562
35.282838,0.133631,-1.815768,-9.563232
35.316150,0.106995,-1.817264,-9.605730
35.349493,0.136474,-1.824596,-9.722302
35.382859,0.130489,-1.864102,-9.643141
35.416145,0.141263,-1.850036,-9.574455
35.449536,0.138719,-1.820855,-9.556947
35.482888,0.112681,-1.791825,-9.632516
35.516188,0.095472,-1.797212,-9.628626
35.549530,0.144256,-1.813074,-9.646733
35.582871,0.123904,-1.808285,-9.579543
35.616209,0.133182,-1.825195,-9.585379
35.649653,0.133930,-1.807388,-9.660500
35.682134,0.140964,-1.808435,-9.613961
35.716183,0.144106,-1.796464,-9.652868
35.749572,0.127346,-1.820257,-9.716317
35.782974,0.149942,-1.815768,-9.611716
35.816156,0.139318,-1.799157,-9.553206
35.849530,0.162213,-1.789430,-9.569517
35.882869,0.131835,-1.828936,-9.714820
35.916195,0.115824,-1.761597,-9.660350
35.949549,0.138270,-1.774765,-9.686388
35.982900,0.127047,-1.818162,-9.536446
36.016179,0.114477,-1.824447,-9.624735
36.049576,0.110436,-1.775813,-9.626830
36.082914,0.116721,-1.716854,-9.660500
36.116196,0.079610,-1.766086,-9.622790
36.149521,0.079610,-1.843003,-9.631170
36.181925,0.121510,-1.860810,-9.586576
36.216225,0.126448,-1.840159,-9.601989
36.249541,0.121959,-1.821903,-9.637754
36.282923,0.086943,-1.780003,-9.617851
36.316219,0.086344,-1.806340,-9.639550
36.349518,0.082603,-1.818162,-9.624885
36.382872,0.094275,-1.849886,-9.602887
36.416251,0.114327,-1.808435,-9.484071
36.449576,0.074971,-1.778506,-9.525522
36.483072,0.072128,-1.802599,-9.723200
36.516222,0.110137,-1.818311,-9.754924
36.549513,0.125401,-1.838513,-9.599296
36.582900,0.102356,-1.878767,-9.479581
36.616270,0.102356,-1.893582,-9.601091
36.649559,0.105349,-1.875026,-9.768542
36.682906,0.118368,-1.837915,-9.586277
36.716257,0.140365,-1.822950,-9.537643
36.749627,0.066441,-1.726131,-9.480030
36.782859,0.010625,-1.797661,-9.776922
36.816239,0.082453,-1.869489,-9.807150
36.849640,0.173436,-1.881311,-9.555450
36.882896,0.137672,-1.878468,-9.401917
36.916187,0.067788,-1.808435,-9.521481
36.949522,0.089636,-1.783145,-9.849050
36.982850,0.104451,-1.817563,-9.767644
37.015922,0.144256,-1.890140,-9.580291
37.049629,0.135876,-1.864401,-9.477187
37.082848,0.102056,-1.837017,-9.573707
37.116223,0.066591,-1.817414,-9.681150
37.149517,0.057313,-1.803347,-9.619946
37.182870,0.082304,-1.827589,-9.592113
37.216256,0.089337,-1.851532,-9.573557
37.249575,0.071679,-1.848090,-9.623688
37.282868,0.086344,-1.849886,-9.633265
37.316226,0.087541,-1.821903,-9.633115
37.349549,0.093527,-1.843900,-9.646433
37.382901,0.110137,-1.860810,-9.625633
37.416269,0.124503,-1.918423,-9.577149
37.449550,0.107893,-1.960323,-9.625334
37.482927,0.072278,-1.861109,-9.630421
37.516266,0.052824,-1.807238,-9.654065
37.549644,0.058361,-1.788383,-9.515047
37.582976,0.079610,-1.884154,-9.614859
37.616236,0.099662,-1.886249,-9.576251
37.649573,0.092928,-1.891038,-9.710032
37.682868,0.055966,-1.890140,-9.568020
37.716190,0.082154,-1.862007,-9.587175
37.749589,0.097717,-1.849886,-9.593909
37.782857,0.084099,-1.885800,-9.570564
37.816212,0.093228,-1.868143,-9.597350
37.849311,0.102356,-1.892534,-9.657806
37.882892,0.098764,-1.900765,-9.654664
37.916220,0.108192,-1.899418,-9.604683
37.949558,0.104002,-1.848390,-9.520733
37.982355,0.083201,-1.861558,-9.557096
38.016181,0.073624,-1.867245,-9.703148
38.049510,0.083351,-1.874128,-9.659901
38.082865,0.112681,-1.900765,-9.565028
38.115542,0.100111,-1.901962,-9.499035
38.149604,0.106995,-1.889242,-9.618300
38.182943,0.105648,-1.863653,-9.722602
38.216254,0.091581,-1.857668,-9.597350
38.249518,0.091133,-1.895826,-9.571313
38.282893,0.103104,-1.886848,-9.570265
38.316178,0.113130,-1.884005,-9.614859
38.349518,0.108341,-1.854824,-9.634013
38.382877,0.106396,-1.870686,-9.570714
38.416197,0.096669,-1.827589,-9.602738
38.449570,0.103852,-1.851233,-9.668880
38.482914,0.124653,-1.894031,-9.744599
38.516199,0.144106,-1.838064,-9.589120
38.549532,0.119565,-1.883705,-9.482574
38.582891,0.118218,-1.920069,-9.585828
38.616203,0.134080,-1.890140,-9.702849
38.649544,0.076019,-1.852729,-9.676661
38.682853,0.118816,-1.775663,-9.654215
38.716177,0.111334,-1.826691,-9.510258
38.749501,0.106845,-1.794668,-9.670376
38.782849,0.088289,-1.861558,-9.598248
38.816206,0.120762,-1.875026,-9.736518
38.849548,0.111484,-1.828487,-9.604084
38.882854,0.054171,-1.832677,-9.444266
38.916204,0.079161,-1.849736,-9.657357
38.949580,0.134379,-1.873679,-9.704345
38.982954,0.109539,-1.871884,-9.566374
39.016250,0.040553,-1.811428,-9.484520
39.049555,-0.009128,-1.731519,-9.581039
39.082876,-0.045342,-1.740198,-9.770038
39.116169,0.033071,-1.808884,-9.604384
39.149513,0.075719,-1.865000,-9.556348
39.182861,0.107743,-1.873530,-9.635210
39.216226,0.117769,-1.841057,-9.604084
39.249485,0.097866,-1.837765,-9.616355
39.282887,0.118667,-1.789430,-9.622191
39.316150,0.039057,-1.819658,-9.601989
39.348826,0.034418,-1.761746,-9.572659
39.382844,0.039655,-1.818461,-9.706440
39.416225,0.032024,-1.808136,-9.531657
39.449576,0.098465,-1.793920,-9.611417
39.482962,0.102954,-1.781050,-9.569666
39.516193,0.130040,-1.807238,-9.644937
39.549512,0.121959,-1.770725,-9.648229
39.582962,0.125550,-1.773867,-9.705842
39.616198,0.151888,-1.780152,-9.637455
39.649585,0.292851,-1.702488,-9.887358
39.682970,0.101608,-1.923660,-9.566374
39.716226,0.153234,-1.693210,-9.710630
39.749509,0.076916,-1.763542,-9.654813
39.782863,0.107444,-1.749625,-9.566524
39.816146,0.095173,-1.749625,-9.689082
39.849589,0.051477,-1.749775,-9.628775
39.882839,0.068836,-1.697250,-9.618300
39.916258,0.023344,-1.746632,-9.608873
39.949602,0.047138,-1.708474,-9.692673
39.982923,0.036663,-1.752768,-9.634013
40.016250,0.033969,-1.687673,-9.622191
40.049577,0.029779,-1.728526,-9.624735
40.082924,0.020501,-1.725533,-9.642991
40.116266,-0.009278,-1.716854,-9.640148
40.149594,0.003143,-1.719397,-9.633863
40.182890,0.001796,-1.754713,-9.700005
40.216256,-0.035166,-1.705032,-9.635958
40.249595,-0.002245,-1.683483,-9.629823
40.282932,-0.049233,-1.725383,-9.617103
40.316278,-0.036962,-1.719846,-9.676811
40.349544,-0.053423,-1.711317,-9.654514
40.382922,-0.050280,-1.656398,-9.616056
40.416272,-0.079460,-1.673307,-9.622041
40.449622,-0.083650,-1.674804,-9.647181
40.482914,-0.065394,-1.704583,-9.662445
40.516259,-0.082753,-1.683184,-9.671723
40.549621,-0.070931,-1.646372,-9.656609
40.582925,-0.125102,-1.694108,-9.623837
40.616271,-0.097118,-1.677198,-9.649276
40.649634,-0.105199,-1.667172,-9.647930
40.682885,-0.087990,-1.652956,-9.661996
40.716194,-0.089786,-1.665227,-9.687286
40.749536,-0.134529,-1.674804,-9.631319
40.782794,-0.102356,-1.644875,-9.632666
40.816136,-0.136025,-1.646372,-9.627728
40.849410,-0.140066,-1.679592,-9.664241
40.882847,-0.133930,-1.673457,-9.655561
40.915938,-0.131536,-1.658942,-9.642842
40.949516,-0.136624,-1.654452,-9.634462
40.982899,-0.158622,-1.664478,-9.636706
41.016250,-0.119864,-1.635148,-9.663193
41.049534,-0.140964,-1.658343,-9.637155
41.082415,-0.127197,-1.645773,-9.676661
41.116253,-0.106845,-1.678545,-9.648079
41.149626,-0.141562,-1.637842,-9.672022
41.182893,-0.152486,-1.694407,-9.612315
41.216227,-0.160567,-1.669117,-9.642842
41.249542,-0.129591,-1.648616,-9.661847
41.282876,-0.153384,-1.642182,-9.631619
41.316221,-0.166104,-1.613301,-9.615756
41.349509,-0.133930,-1.657894,-9.622640
41.382896,-0.134529,-1.680640,-9.693122
41.416203,-0.154132,-1.667621,-9.679504
41.449480,-0.137223,-1.618239,-9.656160
41.482843,-0.145603,-1.626469,-9.617702
41.516125,-0.170593,-1.643080,-9.618450
41.549464,-0.152785,-1.595942,-9.679355
41.582859,-0.249305,-1.608961,-9.570415
41.616203,-0.188849,-1.607614,-9.630421
41.649645,-0.164607,-1.605669,-9.700604
41.682287,-0.164458,-1.568408,-9.692074
41.715750,-0.175382,-1.524862,-9.662295
41.748968,-0.156227,-1.583522,-9.667234
41.782320,-0.133182,-1.561973,-9.720058
41.815676,-0.128992,-1.513638,-9.691177
41.848944,-0.110736,-1.503163,-9.670077
41.882512,-0.146949,-1.500171,-9.659752
41.916233,-0.119714,-1.505258,-9.683844
41.949043,-0.136474,-1.508401,-9.671873
41.982421,-0.141862,-1.477874,-9.676811
42.015708,-0.115973,-1.523365,-9.694169
42.048975,-0.113729,-1.473983,-9.683545
42.082380,-0.117470,-1.514536,-9.675913
42.115668,-0.132883,-1.529501,-9.674267
42.149026,-0.127945,-1.506904,-9.701502
42.182922,-0.111783,-1.496280,-9.670376
42.216244,-0.150541,-1.454230,-9.642243
42.249515,-0.127346,-1.494035,-9.651521
42.282834,-0.141862,-1.506306,-9.695965
42.316202,-0.146052,-1.518128,-9.696713
42.349525,-0.134828,-1.499422,-9.684143
42.382880,-0.134230,-1.492090,-9.671573
42.416214,-0.146650,-1.508251,-9.643889
42.449588,-0.143657,-1.528603,-9.678457
42.482866,-0.141562,-1.526059,-9.661547
42.516206,-0.103254,-1.550750,-9.680552
42.549617,-0.146351,-1.523515,-9.688932
42.582867,-0.132883,-1.537731,-9.676661
42.616200,-0.159819,-1.529800,-9.664839
42.649547,-0.156078,-1.551797,-9.654963
42.682850,-0.156377,-1.555389,-9.669179
42.716224,-0.162512,-1.560926,-9.651222
42.749556,-0.157424,-1.559130,-9.665288
42.782931,-0.153384,-1.561524,-9.658704
42.816264,-0.165206,-1.549403,-9.694319
42.849589,-0.158472,-1.543118,-9.667084
42.882935,-0.129441,-1.588161,-9.689830
42.916189,-0.172688,-1.536384,-9.677260
42.949645,-0.174184,-1.578733,-9.655412
42.982942,-0.200522,-1.570203,-9.669029
43.016227,-0.192441,-1.571401,-9.677409
43.049510,-0.176130,-1.574094,-9.647481
43.082898,-0.199773,-1.545063,-9.646733
43.116176,-0.166553,-1.575740,-9.659153
43.149510,-0.210697,-1.570353,-9.647331
43.182900,-0.166852,-1.563769,-9.693421
43.216197,-0.161764,-1.564667,-9.716915
43.249571,-0.138569,-1.584569,-9.692374
43.282869,-0.162063,-1.601329,-9.646882
43.316203,-0.177177,-1.516332,-9.643590
43.349539,-0.207405,-1.559130,-9.630122
43.382854,-0.213092,-1.613301,-9.677709
43.416213,-0.161165,-1.695155,-9.656010
43.449558,-0.195883,-1.624823,-9.678158
43.482866,-0.150840,-1.638141,-9.636258
43.516213,-0.141413,-1.527854,-9.646433
43.549519,-0.149643,-1.489247,-9.669329
43.582805,-0.181367,-1.510346,-9.671573
43.616179,-0.147099,-1.598336,-9.715119
43.649512,-0.149793,-1.622130,-9.700754
43.682846,-0.159819,-1.644726,-9.645386
43.716256,-0.185258,-1.555538,-9.591664
43.749508,-0.145303,-1.525460,-9.610369
43.782849,-0.138120,-1.566911,-9.684443
43.816185,-0.147249,-1.562272,-9.738164
43.849507,-0.166702,-1.604771,-9.676212
43.882861,-0.199624,-1.563470,-9.651072
43.916167,-0.167899,-1.565265,-9.672022
43.949527,-0.184360,-1.562123,-9.648528
43.982845,-0.184959,-1.572448,-9.661098
44.016230,-0.147847,-1.619137,-9.692673
44.049496,-0.162063,-1.598636,-9.688633
44.082860,-0.198127,-1.595643,-9.626082
44.116161,-0.168199,-1.586664,-9.653915
44.149607,-0.203065,-1.600282,-9.602588
44.182910,-0.191393,-1.599683,-9.661248
44.216281,-0.175681,-1.591153,-9.710181
44.249525,-0.167600,-1.587712,-9.669628
44.283211,-0.192740,-1.560776,-9.628177
44.315263,-0.176579,-1.599533,-9.647331
44.349506,-0.201719,-1.610757,-9.651970
44.382885,-0.162512,-1.582025,-9.666186
44.416190,-0.178823,-1.583222,-9.648977
44.449514,-0.188550,-1.580978,-9.650773
44.482841,-0.209201,-1.591004,-9.651072
44.516164,-0.204861,-1.583522,-9.681899
44.549651,-0.184510,-1.585018,-9.657058
44.582864,-0.212493,-1.589956,-9.663792
44.616188,-0.179123,-1.556586,-9.673070
44.649519,-0.165206,-1.583671,-9.700454
44.682985,-0.183762,-1.579032,-9.632516
44.716267,-0.179272,-1.575142,-9.671573
44.749589,-0.174633,-1.619286,-9.671723
44.782915,-0.173735,-1.593548,-9.708984
44.816210,-0.171192,-1.567660,-9.681001
44.849535,-0.175232,-1.568557,-9.685041
44.882858,-0.219077,-1.571999,-9.635958
44.916250,-0.225362,-1.580529,-9.620994
44.949537,-0.205909,-1.581127,-9.668730
44.982871,-0.201120,-1.608213,-9.666336
45.016185,-0.214289,-1.567360,-9.648828
45.049528,-0.180769,-1.552546,-9.667084
45.082727,-0.200970,-1.579781,-9.662894
45.116181,-0.208453,-1.581127,-9.664989
45.149543,-0.194087,-1.597588,-9.665887
45.182889,-0.212044,-1.565864,-9.645386
45.216206,-0.229403,-1.569904,-9.626381
45.249534,-0.203963,-1.539377,-9.648528
45.282705,-0.178524,-1.569306,-9.681749
45.316195,-0.201120,-1.559280,-9.665438
45.349525,-0.222070,-1.551348,-9.657956
45.382942,-0.208453,-1.552246,-9.671573
45.416176,-0.208153,-1.528453,-9.664989
45.449513,-0.202018,-1.541023,-9.677858
45.483004,-0.192142,-1.532942,-9.669179
45.516280,-0.215336,-1.495532,-9.674117
45.549527,-0.182864,-1.542819,-9.683994
45.582724,-0.196631,-1.514087,-9.688034
45.616177,-0.185108,-1.532493,-9.660500
45.649176,-0.205909,-1.534289,-9.679504
45.682403,-0.199324,-1.522467,-9.704345
45.715818,-0.205310,-1.472337,-9.646284
45.749147,-0.207106,-1.489247,-9.681150
45.782366,-0.201719,-1.593248,-9.740110
45.815690,-0.236885,-1.500320,-9.624436
45.849490,-0.198277,-1.378212,-9.635659
45.882400,-0.189897,-1.545363,-9.718262
45.915668,-0.225362,-1.507802,-9.678607
45.949052,-0.269058,-1.407990,-9.569517
45.982384,-0.210099,-1.508850,-9.680103
46.015734,-0.211595,-1.661037,-9.740110
46.049645,-0.198576,-1.575740,-9.627578
46.082378,-0.181367,-1.349181,-9.545873
46.115682,0.018107,-1.299799,-9.607077
46.149616,-0.067190,-1.623027,-9.490954
46.182905,-0.746419,-1.748578,-9.535548
46.216182,-0.650348,-1.824148,-9.937489
46.248914,-0.420197,-1.758903,-9.960833
46.282862,-0.474518,-1.327183,-9.320062
46.316173,-0.432318,-1.199688,-9.247934
46.349560,-0.356749,-1.406045,-9.617103
46.382889,-0.353906,-1.680490,-9.900527
46.416290,-0.558168,-1.498674,-9.888107
46.449578,-0.502351,-1.341699,-9.941380
46.482994,-0.409722,-1.242186,-10.043436
46.516181,-0.260828,-1.286480,-9.786948
46.549518,-0.163709,-1.408739,-9.455040
46.582882,-0.221322,-1.450788,-9.509660
46.616205,-0.400594,-1.538329,-9.639999
46.649547,-0.510282,-1.742442,-9.713024
46.682865,-0.335649,-1.868741,-9.820019
46.716330,-0.276839,-1.799157,-9.675913
46.748773,-0.355552,-1.501218,-9.367349
46.783000,-0.284322,-1.358159,-9.391891
46.816004,-0.168947,-1.529351,-9.670227
46.849650,-0.193189,-1.499422,-9.727240
46.882866,-0.461200,-1.183825,-9.610369
46.916204,-0.343131,-1.253709,-9.690428
46.949541,-0.266514,-1.484757,-9.828998
46.982967,-0.365578,-1.472337,-9.750585
47.016207,-0.414062,-1.506605,-9.734274
47.049668,-0.416157,-1.527854,-9.703747
47.082936,-0.424088,-1.396767,-9.650324
47.116304,-0.365129,-1.357860,-9.732927
47.149478,-0.276241,-1.361452,-9.758516
47.182880,0.059259,-1.282290,-9.841418
47.216296,0.112681,-1.280794,-9.672172
47.248584,-0.055667,-1.299948,-9.586875
47.282834,-0.251999,-1.486703,-9.704644
47.315216,-0.214887,-1.645324,-9.886461
47.349515,-0.185707,-1.553144,-9.918783
47.382930,-0.179272,-1.397515,-9.629374
47.416182,-0.181667,-1.348582,-9.505170
47.449510,-0.149643,-1.461563,-9.471052
47.482839,-0.197828,-1.618388,-9.593460
47.516177,-0.266813,-1.642481,-9.771984
47.549624,-0.188550,-1.596241,-9.776623
47.582858,-0.153234,-1.427743,-9.625932
47.616171,-0.197229,-1.406195,-9.543629
47.649510,-0.203514,-1.475180,-9.533602
47.682848,-0.105648,-1.598636,-9.520434
47.716182,-0.114178,-1.602077,-9.498736
47.749514,-0.255740,-1.684231,-9.532405
47.782929,-0.410022,-1.725234,-9.770787
47.816052,-0.510133,-1.704583,-9.766447
47.849097,-0.475715,-1.538928,-9.722153
47.882929,-0.441596,-1.309675,-9.550961
47.916141,-0.361238,-1.271366,-9.433791
47.949609,-0.361388,-1.314763,-9.482874
47.982929,-0.356898,-1.571550,-9.777670
48.016253,-0.338193,-1.545063,-9.936890
48.049629,-0.356898,-1.248920,-9.772882
48.082893,-0.547244,-1.081769,-9.426159
48.116247,-0.587498,-1.212856,-9.675015
48.149594,-0.335499,-1.538180,-9.887059
48.182905,-0.062700,-1.514536,-9.980885
48.216289,0.097567,-1.212706,-9.775425
48.249498,-0.136025,-1.104814,-9.669478
48.282915,-0.307067,-1.131899,-9.845458
48.316303,-0.267861,-1.369981,-10.068875
48.349596,-0.203065,-1.356813,-10.028921
48.382903,-0.298687,-1.166467,-9.690877
48.415454,-0.345226,-1.221386,-9.465665
48.449567,-0.364081,-1.400059,-9.441123
48.482930,-0.413763,-1.482064,-9.473446
48.516220,-0.350613,-1.608213,-9.668281
48.549555,-0.230300,-1.484608,-9.676362
48.582937,-0.182265,-1.397067,-9.584481
48.616184,-0.177626,-1.347535,-9.586277
48.649584,-0.267113,-1.375817,-9.823461
48.682914,-0.243319,-1.505707,-9.846057
48.716233,-0.024093,-1.588310,-9.897235
48.749613,-0.015114,-1.450190,-9.888107
48.782926,0.080209,-1.724934,-9.936591
48.816275,-0.254243,-1.495382,-9.683545
48.849563,-0.609047,-1.456325,-9.396380
48.882930,-0.552931,-1.598935,-9.544377
48.915279,-0.492774,-1.750523,-9.651521
48.949577,-0.548591,-1.725982,-9.556498
48.982619,-0.433516,-1.597887,-9.368247
49.015710,-0.356150,-1.770426,-9.544826
49.048631,-0.278486,-1.617191,-9.605730
49.082729,-0.345825,-1.417119,-9.597051
49.116213,-0.388772,-1.535337,-9.631918
49.149542,-0.341934,-1.727329,-9.662595
49.182865,-0.296892,-1.735110,-9.682198
49.216223,-0.248258,-1.746184,-9.737117
49.249526,-0.289409,-1.739450,-9.640597
49.282884,-0.321134,-1.659241,-9.562035
49.316225,-0.294797,-1.689768,-9.651820
49.349533,-0.250353,-1.675702,-9.728138
49.382894,-0.331010,-1.694257,-9.671873
49.415522,-0.322929,-1.612552,-9.664989
49.449535,-0.313801,-1.719547,-9.644039
49.482887,-0.339390,-1.684830,-9.733974
49.516216,-0.255740,-1.661336,-9.749088
49.549581,-0.103104,-1.605519,-9.750884
49.582932,-0.028582,-1.666424,-9.587474
49.616199,-0.052974,-1.649813,-9.459978
49.649545,-0.077964,-1.697999,-9.479432
49.682900,-0.021998,-1.829984,-9.669329
49.716214,-0.071978,-1.919470,-9.744300
49.749491,-0.054021,-1.883107,-9.718262
49.782888,-0.047586,-1.787335,-9.631918
49.816224,-0.088439,-1.767433,-9.529113
49.849544,-0.126748,-1.785390,-9.500980
49.882899,-0.135277,-1.871285,-9.580740
49.916167,-0.189448,-1.884603,-9.609023
49.949504,-0.175980,-1.827140,-9.631619
49.982591,-0.172838,-1.852729,-9.586726
50.016262,-0.168947,-1.916477,-9.590168
50.049581,-0.155180,-1.902111,-9.508163
50.082571,-0.161764,-1.888494,-9.451000
50.115579,-0.203664,-1.869489,-9.518489
50.149568,-0.128094,-1.831330,-9.600643
50.182907,-0.107743,-1.832528,-9.676362
50.216222,-0.154432,-1.798559,-9.634312
50.249583,-0.160717,-1.760549,-9.597051
50.282985,-0.202766,-1.737804,-9.628775
50.316258,-0.146351,-1.724485,-9.676811
50.349593,-0.180020,-1.744986,-9.664540
50.382943,-0.246312,-1.673307,-9.627279
50.416205,-0.246612,-1.661935,-9.635958
50.449578,-0.233892,-1.668369,-9.670376
50.482934,-0.206358,-1.626320,-9.690129
50.516236,-0.146949,-1.634999,-9.708834
50.549543,-0.150242,-1.614947,-9.610968
50.582902,-0.189598,-1.559130,-9.587773
50.616223,-0.211745,-1.596690,-9.582985
50.649605,-0.282227,-1.616593,-9.666186
50.682875,-0.248108,-1.698148,-9.788444
50.716206,-0.151139,-1.660438,-9.761509
50.749505,-0.129890,-1.526957,-9.684143
50.782926,-0.154731,-1.453931,-9.694319
50.816219,-0.167450,-1.574244,-9.761060
50.849536,-0.184210,-1.576488,-9.682946
50.882859,-0.327119,-1.399461,-9.558743
50.916207,-0.250053,-1.513638,-9.675015
50.949507,-0.214438,-1.636196,-9.757019
50.982851,-0.227158,-1.605519,-9.676661
51.016156,-0.255141,-1.525460,-9.655113
51.049575,-0.250802,-1.518128,-9.535398
51.082901,-0.221172,-1.513189,-9.534201
51.116195,-0.244367,-1.532344,-9.540785
51.149502,-0.188251,-1.594895,-9.602588
51.182350,-0.203065,-1.525161,-9.620844
51.216044,-0.227008,-1.460964,-9.766297
51.249058,-0.176878,-1.621830,-9.881822
51.282071,-0.093228,-1.848988,-9.989565
51.316208,-0.104002,-1.664927,-9.651671
51.349589,-0.244367,-1.329428,-9.321259
51.382872,-0.400744,-1.235901,-9.370941
51.416236,-0.275792,-1.480717,-9.807748
51.449581,-0.189598,-1.742891,-9.974750
51.482941,-0.307666,-1.448394,-9.785003
51.516252,-0.281927,-1.389285,-9.569517
51.549522,-0.276091,-1.375069,-9.576550
51.582874,-0.279533,-1.542071,-9.652718
51.616207,-0.235388,-1.537282,-9.705692
51.649537,-0.292253,-1.468895,-9.714521
51.682761,-0.328167,-1.385544,-9.674865
51.716210,-0.245863,-1.467249,-9.765998
51.749549,-0.259481,-1.461862,-9.769440
51.782882,-0.247809,-1.451986,-9.723050
51.816214,-0.299436,-1.449891,-9.710331
51.849526,-0.329514,-1.418615,-9.599894
51.882894,-0.361837,-1.408888,-9.615457
51.916188,-0.363483,-1.459168,-9.661996
51.949525,-0.320236,-1.558082,-9.676811
51.982884,-0.311856,-1.463059,-9.650474
52.016199,-0.266215,-1.474582,-9.706141
52.049539,-0.126299,-1.572298,-9.945570
52.082884,-0.184210,-1.546111,-9.927014
52.116202,-0.353157,-1.453632,-9.623688
52.149496,-0.813908,-1.328530,-9.209476
52.182875,-0.765873,-1.400359,-9.403263
52.216187,-0.559365,-1.664030,-9.769889
52.249517,-0.475266,-1.693060,-9.880026
52.282849,-0.369020,-1.591752,-9.865959
52.315542,-0.130638,-1.419214,-9.670376
52.349484,0.026636,-1.339155,-9.437831
52.382850,-0.215187,-1.404399,-9.459679
52.416179,-0.392364,-1.695455,-9.660949
52.449519,-0.272949,-1.808136,-9.903520
52.482847,-0.228654,-1.619885,-9.779466
52.516155,-0.263821,-1.469793,-9.578645
52.549604,-0.320984,-1.447796,-9.473745
52.582845,-0.292851,-1.569755,-9.571911
52.616208,-0.364231,-1.673307,-9.646583
52.649498,-0.369468,-1.670165,-9.678457
52.682892,-0.336248,-1.642481,-9.677110
52.716169,-0.294348,-1.600581,-9.649426
52.749517,-0.304972,-1.574543,-9.647481
52.782847,-0.299735,-1.576189,-9.595106
52.816196,-0.330861,-1.581576,-9.638801
52.849305,-0.348369,-1.616742,-9.646583
52.882257,-0.345077,-1.631557,-9.686388
52.915154,-0.356749,-1.563619,-9.664690
52.949474,-0.358395,-1.574244,-9.652269
52.982806,-0.346124,-1.533691,-9.691326
53.016195,-0.368421,-1.582025,-9.639250
53.049535,-0.342982,-1.550002,-9.690877
53.082847,-0.335200,-1.543567,-9.667234
53.116139,-0.351661,-1.572897,-9.651222
53.149500,-0.312006,-1.547308,-9.681450
53.182933,-0.312454,-1.550451,-9.690279
53.216174,-0.321882,-1.554940,-9.660200
53.249497,-0.340737,-1.554491,-9.641794
53.282816,-0.320984,-1.568857,-9.677260
53.316149,-0.337295,-1.558232,-9.677110
53.349484,-0.330711,-1.543118,-9.651222
53.382819,-0.313352,-1.545213,-9.682797
53.416143,-0.316345,-1.547308,-9.649276
53.449478,-0.338941,-1.567809,-9.626531
53.482889,-0.277737,-1.567211,-9.696414
53.516164,-0.305421,-1.556736,-9.662295
53.549482,-0.319039,-1.550750,-9.638652
53.582830,-0.320086,-1.552995,-9.627129
53.616190,-0.279832,-1.560776,-9.689530
53.649495,-0.305870,-1.589956,-9.721404
53.682828,-0.285219,-1.591453,-9.701502
53.716165,-0.283723,-1.625122,-9.727839
53.749580,-0.178973,-1.735709,-9.918185
53.782838,-0.149044,-1.773119,-9.864463
53.816170,-0.150242,-1.752169,-9.738613
53.849525,-0.243619,-1.804245,-9.487961
53.882889,-0.300184,-1.807986,-9.484071
53.916160,-0.421993,-2.210975,-9.348195
53.949500,-0.264269,-2.175060,-9.707188
53.982824,-0.099064,-2.282504,-9.771385
54.016199,-0.151439,-2.184039,-9.569517
54.049565,0.069883,-3.313095,-9.598099
54.082851,-0.042199,-2.555153,-9.395931
54.116276,-0.350763,-2.295074,-9.434389
54.149483,-0.386677,-2.063726,-9.344603
54.182854,-0.454017,-2.090512,-9.336373
54.216238,-0.155479,-1.833126,-8.952689
54.249507,-0.244068,-2.159647,-9.675165
54.282927,-0.240476,-2.235067,-9.721404
54.316202,-0.356449,-2.600645,-9.719609
54.349517,-0.188400,-2.404313,-9.456087
54.382990,-0.237783,-2.355380,-9.323055
54.416410,-0.287614,-2.287143,-9.344304
54.449155,-0.549639,-2.356876,-9.455788
54.482500,-0.634636,-2.265594,-9.391442
54.515393,-0.114626,-1.687673,-9.519985
54.549529,1.615994,-0.769314,-9.377675
54.582807,0.483197,-2.083030,-9.512054
54.616148,0.434862,-2.036940,-10.050170
54.649474,0.470926,-1.696801,-9.877781
54.682816,0.547544,-1.912886,-9.891997
54.716210,0.542306,-1.713861,-9.534800
54.749500,0.288362,-1.520073,-9.322157
54.782918,0.207255,-1.546709,-9.456536
54.816131,0.201719,-1.593847,-9.790689
54.849544,0.375753,-1.749176,-9.935992
54.882926,0.420646,-1.798409,-9.839323
54.916258,0.340737,-1.796613,-9.578046
54.949511,0.280132,-1.741545,-9.469855
54.982828,0.196332,-1.737205,-9.477187
55.016474,0.278486,-1.911389,-9.681749
55.049462,0.235239,-1.840758,-9.546173
55.082811,0.176279,-1.762794,-9.622191
55.116421,0.120612,-1.851233,-9.704644
55.149471,0.111634,-1.809333,-9.686987
55.182891,0.144256,-1.824746,-9.638502
55.216194,0.135876,-1.725383,-9.575503
55.249593,0.190795,-1.726730,-9.615756
55.282900,0.255141,-1.747979,-9.641345
55.316193,0.181068,-1.796464,-9.650174
55.349547,0.106995,-1.826841,-9.702250
55.382822,0.096220,-1.782846,-9.705542
55.416428,0.107593,-1.770725,-9.604384
55.449481,0.148745,-1.821155,-9.608873
55.482828,0.193039,-1.675851,-9.519386
55.516199,0.115524,-1.763841,-9.748490
55.549473,0.122258,-1.685877,-9.715718
55.582858,0.303476,-1.588161,-9.631918
55.616190,0.483347,-1.491791,-9.538092
55.649309,0.544251,-1.500769,-9.526869
55.682818,0.564304,-1.504510,-9.665139
55.716266,0.428877,-1.585467,-9.731430
55.749490,0.260079,-1.547607,-9.701203
55.782863,0.383984,-1.475928,-9.720058
55.816219,0.357497,-1.451387,-9.623388
55.849590,0.525696,-1.433579,-9.515645
55.882955,0.518214,-1.482662,-9.638502
55.916443,0.416456,-1.472936,-9.836330
55.949479,0.552931,-1.500919,-9.762107
55.982829,0.635833,-1.537581,-9.608424
56.016379,0.547992,-1.403800,-9.517740
56.049595,0.480803,-1.333768,-9.675614
56.082618,0.609945,-1.472636,-9.785901
56.115637,0.544251,-1.443007,-9.617103
56.148550,0.431121,-1.380157,-9.652718
56.182808,0.542755,-1.342148,-9.704345
56.216199,0.614584,-1.440463,-9.687286
56.249468,0.574629,-1.520223,-9.641046
56.282812,0.578220,-1.489097,-9.673668
56.316155,0.578669,-1.450639,-9.683395
56.349508,0.591389,-1.475479,-9.683694
56.382821,0.578220,-1.550451,-9.644039
56.416225,0.525396,-1.614797,-9.646284
56.449496,0.552631,-1.682885,-9.629374
56.482812,0.573282,-1.539227,-9.530909
56.516140,0.603061,-1.837166,-9.661697
56.548556,0.561161,-1.890739,-9.708535
56.582811,0.698833,-1.923361,-9.259457
56.616145,0.815554,-2.078241,-9.617253
56.649418,0.759288,-1.969152,-9.638652
56.682834,0.688507,-1.873380,-9.937190
56.716048,0.598721,-1.655500,-9.886461
56.749639,0.601864,-1.590555,-9.692673
56.782830,0.625807,-1.636046,-9.462073
56.816227,0.634037,-1.751720,-9.425710
56.849518,0.641370,-1.815019,-9.530909
56.882945,0.657082,-1.903907,-9.666037
56.916182,0.591389,-1.886399,-9.588970
56.949479,0.569391,-1.791825,-9.526719
56.982813,0.553230,-1.735260,-9.526719
57.016144,0.618474,-1.736008,-9.569517
57.049501,0.625208,-1.765637,-9.623837
57.082827,0.631344,-1.781050,-9.586726
57.116194,0.643016,-1.812625,-9.560987
57.149493,0.696438,-1.782696,-9.710032
57.182889,0.692847,-1.835520,-9.734573
57.216206,0.689555,-1.913784,-9.548417
57.249587,0.764526,-1.878468,-9.566823
57.282831,0.706165,-1.765039,-9.691775
57.316172,0.574030,-1.711466,-9.567123
57.349563,0.520159,-1.627666,-9.595704
57.382901,0.578370,-1.650562,-9.597650
57.416250,0.600218,-1.705481,-9.604084
57.449601,0.595280,-1.703535,-9.629973
57.482935,0.590491,-1.688272,-9.671424
57.516230,0.526444,-1.694557,-9.591065
57.549516,0.499209,-1.662683,-9.556049
57.582936,0.516268,-1.627068,-9.585828
57.616207,0.426033,-1.616742,-9.578795
57.649536,0.426632,-1.651160,-9.594956
57.682867,0.414511,-1.551797,-9.696115
57.715894,0.344777,-1.703835,-9.597799
57.749608,0.244068,-1.553892,-9.470154
57.782549,0.289709,-1.691265,-9.677709
57.816182,0.437257,-1.859763,-9.639849
57.849647,0.368122,-2.188528,-9.628925
57.882849,0.238980,-1.986360,-9.527317
57.916178,0.371414,-2.051904,-8.136237
57.949631,0.776797,-2.066868,-9.678607
57.982858,0.698833,-1.904057,-9.949610
58.016177,0.500406,-1.753965,-10.227946
58.049522,0.457159,-1.662383,-9.959786
58.082878,0.557719,-1.660288,-9.621293
58.116248,0.596926,-1.722540,-9.359119
58.149588,0.629997,-1.772072,-9.485717
58.182855,0.588097,-1.745136,-9.616205
58.216055,0.561610,-1.792423,-9.767943
58.249571,0.681025,-1.803198,-9.980736
58.282322,0.678930,-1.843451,-9.830644
58.316214,0.669054,-1.828188,-9.750585
58.349604,0.669203,-1.640835,-9.745796
58.382893,0.562957,-1.539227,-9.602738
58.416174,0.465689,-1.528004,-9.637904
58.449616,0.433216,-1.598636,-9.587923
58.482883,0.389221,-1.759801,-9.646134
58.516191,0.419000,-1.800654,-9.686089
58.549600,0.465689,-1.654901,-9.642393
58.582864,0.497114,-1.511693,-9.655561
58.616180,0.525696,-1.458121,-9.515047
58.649517,0.565950,-1.400957,-9.549315
58.682858,0.595729,-1.336910,-9.709882
58.715637,0.558767,-1.456026,-9.584331
58.749522,0.536171,-1.470092,-9.568469
58.782099,0.581961,-1.466501,-9.600643
58.816171,0.576724,-1.517080,-9.795029
58.849581,0.516567,-1.506605,-9.767045
58.882932,0.495318,-1.444952,-9.815530
58.916193,0.539912,-1.401107,-9.696414
58.949585,0.546047,-1.453482,-9.612015
58.982601,0.553529,-1.458121,-9.414636
59.016181,0.574928,-1.515733,-9.612764
59.049549,0.582560,-1.483710,-9.648229
59.082871,0.493373,-1.439266,-9.592562
59.116266,0.416606,-1.240390,-9.367648
59.149545,0.548142,-1.109004,-9.449503
59.182904,0.817350,-1.228569,-10.062441
59.216233,1.077878,-1.480567,-9.878679
59.249519,1.028346,-1.772072,-9.610669
59.281920,1.021313,-1.885651,-9.580141
59.316082,0.817350,-1.761297,-9.735471
59.349497,0.687460,-1.426696,-9.779765
59.382240,0.610094,-1.275856,-9.719758
59.416255,0.638826,-1.344243,-9.753877
59.449625,0.724122,-1.419513,-9.742055
59.482398,0.819145,-1.491641,-9.698509
59.516258,0.789217,-1.581127,-9.693421
59.549520,0.711851,-1.519175,-9.677409
59.582915,0.643764,-1.443456,-9.685640
59.616270,0.592586,-1.473534,-9.664839
59.649495,0.595878,-1.471140,-9.632965
59.682916,0.592436,-1.446598,-9.565476
59.716185,0.576275,-1.370430,-9.545873
59.749530,0.593933,-1.404698,-9.676661
59.782932,0.643016,-1.447496,-9.775425
59.816200,0.644213,-1.570353,-9.569367
59.849527,0.637180,-1.567510,-9.613512
59.882836,0.616828,-1.462161,-9.638951
59.916157,0.559665,-1.410235,-9.742504
59.949528,0.633289,-1.424900,-9.816278
59.982324,0.620120,-1.492838,-9.588521
60.016200,0.466587,-1.604322,-9.547968
60.049604,0.501753,-1.512890,-9.557845
60.082968,0.547394,-1.471140,-9.682797
60.116190,0.611142,-1.417268,-9.653317
60.149617,0.654389,-1.498225,-9.728737
60.182846,0.590641,-1.597438,-9.626830
60.216206,0.548741,-1.654901,-9.756870
60.249559,0.510881,-1.558082,-9.756421
60.282864,0.493522,-1.493287,-9.628925
60.316279,0.522254,-1.449591,-9.582236
60.349616,0.557719,-1.501667,-9.678756
60.382848,0.566099,-1.551648,-9.689231
60.416193,0.555475,-1.662683,-9.686089
60.449558,0.553080,-1.642481,-9.795178
60.482663,0.547544,-1.582474,-9.707937
60.515201,0.511031,-1.559579,-9.492451
60.549594,0.481701,-1.604322,-9.459978
60.582886,0.487537,-1.611954,-9.667832
60.616194,0.463295,-1.642032,-9.738015
60.649596,0.492325,-1.785989,-9.593460
60.682896,0.521206,-1.772970,-9.623388
60.716192,0.498760,-1.704433,-9.567871
60.749515,0.490979,-1.703386,-9.560389
60.782860,0.497264,-1.802000,-9.626531
60.816239,0.552931,-1.881161,-9.726792
60.849540,0.560562,-1.866048,-9.719160
60.882956,0.538116,-1.742293,-9.636856
60.916269,0.519261,-1.684231,-9.536595
60.949526,0.459254,-1.690516,-9.458781
60.981917,0.499957,-1.729424,-9.705243
61.016220,0.519710,-1.825195,-9.628027
61.049516,0.561760,-1.920069,-9.607227
61.082594,0.540211,-1.915130,-9.559191
61.116238,0.533477,-1.840459,-9.640747
61.149487,0.521057,-1.844349,-9.575652
61.183008,0.521206,-1.853627,-9.596153
61.216328,0.505494,-1.843003,-9.559042
61.249595,0.538415,-1.892385,-9.610968
61.282984,0.568344,-1.867394,-9.647032
61.316294,0.577771,-1.862456,-9.566823
61.349668,0.588396,-1.851083,-9.620395
61.383011,0.588097,-1.862606,-9.554104
61.416318,0.567745,-1.847342,-9.565177
61.449685,0.551285,-1.838663,-9.657656
61.482579,0.521506,-1.838214,-9.594657
61.516359,0.571636,-1.855124,-9.621293
61.549675,0.649151,-1.950745,-9.622490
61.582933,0.660823,-1.951045,-9.541085
61.616343,0.623413,-1.926503,-9.526719
61.649705,0.641220,-1.864551,-9.597201
61.683006,0.595878,-1.819958,-9.622939
61.716391,0.628051,-1.802898,-9.645386
61.749680,0.642118,-1.904655,-9.592861
61.783014,0.651396,-1.952242,-9.594806
61.816346,0.646009,-1.911689,-9.598248
61.849527,0.561460,-1.830133,-9.587624
61.882855,0.584056,-1.827290,-9.644638
61.916180,0.596926,-1.876373,-9.550363
61.949515,0.634187,-1.901812,-9.511156
61.982862,0.660075,-1.877869,-9.630571
62.016053,0.642567,-1.840309,-9.707188
62.048975,0.655586,-1.892235,-9.642692
62.081974,0.660225,-1.869489,-9.548118
62.116336,0.662020,-1.916777,-9.578346
62.149671,0.631344,-1.957180,-9.649276
62.182754,0.611591,-1.885800,-9.696863
62.216300,0.618175,-1.854226,-9.590168
62.249662,0.588546,-1.854675,-9.507265
62.282901,0.564004,-1.862905,-9.532705
62.316305,0.553380,-1.858715,-9.598847
62.349625,0.574779,-1.902860,-9.652120
62.382916,0.616230,-1.896126,-9.642842
62.416265,0.587498,-1.892834,-9.606928
62.449636,0.588695,-1.727029,-9.548417
62.482950,0.568045,-1.700542,-9.607526
62.516290,0.568344,-1.782846,-9.604683
62.549668,0.560413,-1.861259,-9.531059
62.582846,0.559515,-1.893582,-9.570564
62.616228,0.519710,-1.852131,-9.649576
62.649628,0.535722,-1.813224,-9.643740
62.682931,0.554277,-1.828936,-9.659153
62.716235,0.558168,-1.793770,-9.552458
62.749598,0.511929,-1.833874,-9.472997
62.782965,0.531382,-1.746034,-9.570564
62.816257,0.474967,-1.777160,-9.704794
62.849624,0.517615,-1.835820,-9.752081
62.882968,0.521805,-1.888644,-9.575203
62.916260,0.524947,-1.849587,-9.506966
62.949593,0.505045,-1.760250,-9.534051
62.982934,0.500855,-1.783295,-9.713174
63.016270,0.513874,-1.752020,-9.684143
63.049479,0.528689,-1.785540,-9.604833
63.082935,0.538116,-1.790777,-9.556947
63.116290,0.563855,-1.815768,-9.623538
63.149605,0.533627,-1.840608,-9.610369
63.182942,0.493074,-1.803796,-9.654963
63.216277,0.474967,-1.794818,-9.607676
63.249650,0.456411,-1.835371,-9.584331
63.282917,0.465539,-1.809483,-9.587025
63.316276,0.527042,-1.803646,-9.632367
63.349409,0.533028,-1.816516,-9.464019
63.382967,0.489033,-1.840010,-9.606179
63.416283,0.473321,-1.789730,-9.595106
63.449634,0.470777,-1.790328,-9.611716
63.482954,0.527342,-1.833126,-9.679355
63.516251,0.513275,-1.913933,-9.563830
63.549605,0.517615,-1.843302,-9.670825
63.582925,0.492774,-1.757407,-9.669628
63.616315,0.552482,-1.694856,-9.648977
63.649283,0.575826,-1.750224,-9.479432
63.682191,0.581064,-1.807537,-9.479282
63.716256,0.533178,-1.833575,-9.689979
63.749577,0.489183,-1.756210,-9.688333
63.782853,0.476762,-1.812326,-9.675015
63.816262,0.519560,-1.789730,-9.512353
63.849597,0.466587,-1.872931,-9.601091
63.882897,0.432318,-1.845397,-9.565776
63.916238,0.481401,-1.786737,-9.654065
63.949572,0.497264,-1.756958,-9.624286
63.982909,0.524050,-1.782996,-9.608125
64.016239,0.513275,-1.756808,-9.619647
64.049554,0.534076,-1.748727,-9.650324
64.082916,0.536171,-1.835670,-9.562334
64.116273,0.557869,-1.884154,-9.547669
64.149562,0.552631,-1.825195,-9.637006
64.182873,0.498610,-1.712813,-9.640448
64.216220,0.542306,-1.707127,-9.608424
64.249564,0.498012,-1.769677,-9.533902
64.282886,0.409573,-1.721492,-9.545724
64.316270,0.503848,-1.662683,-9.654215
64.349602,0.530933,-1.735559,-9.601840
64.382906,0.617277,-1.790029,-9.585529
64.416207,0.659925,-1.780452,-9.615906
64.449450,0.632092,-1.763093,-9.613213
64.482881,0.578969,-1.749326,-9.486465
64.516220,0.571337,-1.930693,-9.717813
64.549527,0.636431,-1.912287,-9.726941
64.582936,0.595130,-1.888045,-9.702699
64.616222,0.621168,-1.712664,-9.450401
64.649542,0.693445,-1.812176,-9.550811
64.682882,0.639724,-1.798858,-9.512952
64.716401,0.705716,-1.771024,-9.496042
64.749584,0.745072,-1.689619,-9.593460
64.782854,0.717688,-1.618688,-9.814931
64.816202,0.764675,-1.696352,-9.645984
64.849561,0.861644,-1.763991,-9.619647
64.882915,0.852366,-1.865299,-9.494695
64.916204,0.823335,-1.873679,-9.749687
64.949077,0.774253,-1.865748,-9.631469
64.983004,0.767668,-1.807537,-9.545125
65.016198,0.764077,-1.661785,-9.523127
65.049710,0.788618,-1.626020,-9.541234
65.082848,0.820792,-1.711915,-9.552757
65.116342,0.799692,-1.710269,-9.601989
65.149672,0.786523,-1.715507,-9.722153
65.182967,0.810616,-1.741245,-9.746544
65.216230,0.878404,-1.744089,-9.715119
65.249730,0.913869,-1.728376,-9.570415
65.282944,0.899653,-1.765787,-9.560389
65.316277,0.836953,-1.758754,-9.601690
65.349646,0.768716,-1.782397,-9.606329
65.383041,0.779490,-1.738402,-9.620096
65.416299,0.799093,-1.718350,-9.665438
65.449005,0.842939,-1.660438,-9.599894
65.482855,0.844435,-1.709072,-9.566225
65.516206,0.856706,-1.689170,-9.516394
65.549619,0.874214,-1.717452,-9.634911
65.582911,0.846979,-1.728825,-9.625334
65.616161,0.834409,-1.707426,-9.595555
65.649537,0.816452,-1.697699,-9.554553
65.682867,0.795801,-1.733165,-9.625783
65.716277,0.818248,-1.758155,-9.580740
65.749595,0.841442,-1.790328,-9.545424
65.782932,0.896511,-1.828038,-9.707937
65.816262,0.923147,-1.772221,-9.674716
65.849430,0.930031,-1.700692,-9.598398
65.882282,0.904442,-1.675402,-9.547819
65.916194,0.865236,-1.753516,-9.502028
65.948789,0.820043,-1.829086,-9.515496
65.982912,0.801188,-1.796913,-9.585978
66.016289,0.812561,-1.770426,-9.419126
66.049187,0.890226,-1.793920,-9.534650
66.082966,0.973427,-1.859014,-9.673219
66.116266,0.955919,-1.849587,-9.625633
66.149564,0.984501,-1.861409,-9.694169
66.182928,0.969836,-1.852879,-9.749837
66.216234,0.924943,-1.755611,-9.544227
66.249509,0.961755,-1.785390,-9.520883
66.282861,0.989439,-1.806639,-9.553655
66.316315,0.953525,-1.848539,-9.490954
66.349621,0.982855,-1.926354,-9.601241
66.382961,0.955770,-1.834473,-9.570864
66.416206,0.905489,-1.747680,-9.482125
66.449565,0.889927,-1.762644,-9.525073
66.482987,0.983753,-1.900765,-9.497987
66.516288,1.069049,-1.874428,-9.573108
66.549125,1.146265,-1.780901,-9.581488
66.582896,1.067702,-1.807687,-9.422867
66.616224,1.004403,-1.832976,-9.682797
66.649375,1.030741,-1.594745,-9.687884
66.682881,1.202980,-1.477126,-9.674566
66.716284,1.150754,-1.676450,-9.508911
66.749513,1.005152,-1.874876,-9.391292
66.782884,1.009940,-2.033049,-9.612614
66.816226,1.088353,-1.878468,-9.616804
66.849600,1.085211,-1.768331,-9.621892
66.882881,1.003206,-1.552995,-9.577448
66.916190,1.055581,-1.508850,-9.538391
66.949537,1.139980,-1.687972,-9.593310
66.982873,1.117234,-1.664329,-9.711229
67.016265,1.133845,-1.588460,-9.763454
67.048924,1.104066,-1.661037,-9.677709
67.082905,1.071144,-1.772072,-9.716167
67.116217,0.980012,-1.865150,-9.619498
67.149364,0.965496,-1.789131,-9.576849
67.182869,0.854910,-1.731668,-9.598996
67.216226,0.912672,-1.729723,-9.546173
67.249573,0.921052,-1.743041,-9.471201
67.282862,0.992731,-1.617341,-9.537942
67.316248,1.004104,-1.654452,-9.576999
67.349592,1.004852,-1.721642,-9.560987
67.382867,0.981957,-1.769229,-9.612614
67.416204,0.980610,-1.771024,-9.665887
67.449664,0.996323,-1.737055,-9.616954
67.482559,0.979263,-1.749775,-9.446510
67.515450,0.986895,-1.783295,-9.492151
67.549644,0.972978,-1.806939,-9.669628
67.582881,0.987793,-1.872183,-9.675464
67.616307,0.984052,-1.946705,-9.504871
67.649041,0.988691,-1.948052,-9.517591
67.682895,0.909081,-1.856321,-9.490655
67.715964,0.913869,-1.751421,-9.496641
67.749572,0.964000,-1.722839,-9.594208
67.782936,1.002159,-1.776262,-9.603186
67.816194,0.995275,-1.774316,-9.658405
67.849550,0.997520,-1.759651,-9.671424
67.882852,1.016375,-1.680640,-9.526569
67.916257,1.045106,-1.668968,-9.626531
67.949586,0.961456,-1.771473,-9.446510
67.982859,0.942302,-1.875325,-9.672621
68.016189,0.892321,-1.810979,-9.747442
68.049561,0.795951,-1.759502,-9.548716
68.082924,0.841742,-1.744238,-9.531956
68.116242,0.844734,-1.807537,-9.613961
68.148966,0.903843,-1.850036,-9.621892
68.182876,0.933922,-1.877121,-9.593909
68.216274,0.923297,-1.825943,-9.547370
68.249526,0.858053,-1.718200,-9.532854
68.282809,0.830369,-1.724785,-9.591963
68.316208,0.828872,-1.798409,-9.598398
68.350791,0.891273,-1.885651,-9.504123
68.384603,0.911625,-1.861409,-9.550662
68.417840,0.880798,-1.751720,-9.639550
68.451113,0.868528,-1.718799,-9.525671
68.484474,0.797896,-1.733763,-9.524774
68.517784,0.793706,-1.715806,-9.582835
68.550974,0.806426,-1.728526,-9.577149
68.584611,0.863739,-1.727927,-9.550811
68.618053,0.951579,-1.747381,-9.634611
68.651006,1.018470,-1.741844,-9.745048
68.684347,1.003506,-1.680790,-9.722003
68.717992,0.935867,-1.676899,-9.712426
68.751111,0.902646,-1.697400,-9.568020
68.782552,0.852666,-1.749027,-9.588821
68.817875,0.779340,-1.645773,-9.521930
68.851469,0.751956,-1.650562,-9.542880
68.884472,0.815404,-1.723737,-9.530310
68.917717,0.849673,-1.728226,-9.594208
68.951487,0.892321,-1.789281,-9.693421
68.984535,0.901898,-1.725383,-9.691625
69.017958,0.829770,-1.651908,-9.575054
69.051185,0.810466,-1.646521,-9.581638
69.084409,0.790564,-1.657894,-9.625483
69.118086,0.779640,-1.687524,-9.643291
69.151136,0.830518,-1.670764,-9.588372
69.184872,0.832164,-1.748877,-9.516693
69.217693,0.881547,-1.708773,-9.634611
69.251114,0.854761,-1.689918,-9.709882
69.282580,0.809119,-1.647868,-9.610968
69.317656,0.780687,-1.644576,-9.555450
69.351157,0.768267,-1.683184,-9.568619
69.384920,0.774103,-1.737055,-9.660051
69.417699,0.774402,-1.740946,-9.661248
69.451046,0.782782,-1.733165,-9.610220
69.485021,0.843837,-1.681089,-9.583434
69.517716,0.889927,-1.715507,-9.691775
69.551371,0.863440,-1.731070,-9.729186
69.584334,0.806725,-1.705181,-9.599894
69.617653,0.720830,-1.718799,-9.530759
69.651458,0.688657,-1.688571,-9.554403
69.684692,0.766621,-1.621082,-9.407304
69.717991,0.785326,-1.587113,-9.487512
69.751050,0.763478,-1.581427,-9.721255
69.782320,0.779789,-1.671961,-9.783506
69.817535,0.839946,-1.858565,-9.761808
69.851167,0.875561,-1.945059,-9.743252
69.882740,0.874513,-1.899717,-9.646134
69.917860,0.857903,-1.735260,-9.586127
69.951406,0.837103,-1.616892,-9.589569
69.984507,0.818397,-1.617940,-9.570415
70.017639,0.784279,-1.675702,-9.565626
70.051371,0.775599,-1.736307,-9.583883
70.084491,0.779191,-1.775813,-9.478684
70.117910,0.787571,-1.832827,-9.485866
70.151072,0.807773,-1.827290,-9.500082
70.184408,0.803732,-1.820406,-9.651970
70.217973,0.804331,-1.824297,-9.694768
70.251038,0.806127,-1.791825,-9.530310
70.282148,0.879003,-1.778656,-9.605581
70.317206,0.879452,-1.736008,-9.595106
70.350899,0.870024,-1.654901,-9.550512
70.382701,0.808072,-1.690516,-9.542581
70.417575,0.822438,-1.767882,-9.608574
70.451077,0.848775,-1.815319,-9.714521
70.484374,0.885737,-1.804993,-9.698808
70.517963,0.837552,-1.761896,-9.634761
70.551090,0.819744,-1.756359,-9.616804
70.584909,0.799692,-1.704433,-9.579094
70.617682,0.835157,-1.743041,-9.673818
70.651023,0.843837,-1.652956,-9.621742
70.684988,0.832913,-1.645175,-9.476289
70.717568,0.829920,-1.747830,-9.571462
70.751078,0.758390,-1.803646,-9.531507
70.784953,0.721129,-1.793022,-9.588821
70.817713,0.708110,-1.709970,-9.562334
70.851058,0.734747,-1.683633,-9.526270
70.882469,0.800889,-1.676749,-9.573557
70.917651,0.880499,-1.703535,-9.739362
70.951092,0.887832,-1.723438,-9.700754
70.984529,0.894416,-1.756958,-9.686837
71.017884,0.874813,-1.755910,-9.606329
71.050602,0.857753,-1.741844,-9.586875
71.084075,0.839647,-1.794369,-9.673070
71.117624,0.797148,-1.719098,-9.662295
71.151306,0.730707,-1.712364,-9.605730
71.184381,0.702574,-1.739599,-9.538241
71.217854,0.722327,-1.676001,-9.527617
71.250999,0.749861,-1.682136,-9.525971
71.284411,0.788020,-1.739450,-9.661398
71.317931,0.776647,-1.766685,-9.624735
71.350923,0.749562,-1.797212,-9.599894
71.382219,0.744923,-1.774616,-9.591514
71.417189,0.714695,-1.660887,-9.563232
71.450830,0.700179,-1.663431,-9.592412
71.484438,0.731305,-1.750523,-9.753428
71.517445,0.681324,-1.775514,-9.741008
71.548831,0.666510,-1.705032,-9.621593
71.583790,0.706764,-1.668668,-9.700454
71.617475,0.742977,-1.737055,-9.505619
71.651077,0.677434,-1.808435,-9.408950
71.683390,0.681773,-1.778955,-9.550512
71.717162,0.675638,-1.676450,-9.734723
71.751166,0.588995,-1.636196,-9.664241
71.784240,0.668006,-1.633502,-9.642094
71.817905,0.649001,-1.673158,-9.881073
71.850958,0.636731,-1.611056,-9.724846
71.884751,0.597973,-1.746932,-9.325898
71.917491,0.552931,-1.777908,-9.486315
71.950962,0.438155,-1.783744,-9.625633
71.984924,0.447881,-1.795117,-9.779316
72.017540,0.600068,-1.651759,-9.572360
72.048778,0.679828,-1.646372,-9.440824
72.083567,0.700329,-1.513339,-9.444864
72.117763,0.629847,-1.541173,-9.940182
72.149250,0.545897,-1.609859,-9.941978
72.183457,0.659925,-1.824148,-9.634761
72.217476,0.634935,-1.905853,-9.422717
72.251198,0.598572,-1.798858,-9.530610
72.284112,0.565201,-1.639937,-9.721704
72.317529,0.536470,-1.632305,-9.641196
72.351186,0.613087,-1.635747,-9.668431
72.384224,0.662619,-1.711466,-9.648678
72.417685,0.656035,-1.718051,-9.636407
72.450949,0.656184,-1.690965,-9.672322
72.484455,0.603211,-1.677647,-9.523127
72.517503,0.584056,-1.705930,-9.571163
72.548629,0.574180,-1.702039,-9.614709
72.583926,0.534974,-1.752917,-9.609621
72.617534,0.586151,-1.758305,-9.677559
72.651442,0.635983,-1.693659,-9.591065
72.683854,0.630895,-1.688122,-9.626830
72.717672,0.639125,-1.721193,-9.679055
72.751688,0.617128,-1.806190,-9.592113
72.784237,0.599170,-1.802000,-9.635060
72.817717,0.526893,-1.679742,-9.564878
72.851534,0.446684,-1.657445,-9.544526
72.884307,0.576574,-1.710120,-9.661697
72.917630,0.622664,-1.768181,-9.666635
72.951762,0.610693,-1.787784,-9.610968
72.983886,0.607101,-1.772970,-9.604533
73.017699,0.579567,-1.695604,-9.538241
73.051787,0.518214,-1.687972,-9.537792
73.084311,0.485891,-1.684531,-9.505021
73.117645,0.534076,-1.737654,-9.581189
73.151808,0.518363,-1.883855,-9.759114
73.184181,0.492026,-1.914233,-9.800566
73.217646,0.500406,-1.860810,-9.716765
73.250475,0.534974,-1.749476,-9.563980
73.283839,0.615930,-1.656847,-9.405658
73.317541,0.606503,-1.582624,-9.498736
73.351547,0.512677,-1.614049,-9.703896
73.384246,0.549040,-1.670614,-9.672621
73.417925,0.503249,-1.787934,-9.416133
73.451165,0.546346,-1.793022,-9.426608
73.484474,0.600068,-1.832677,-9.913546
73.517793,0.483945,-1.897772,-9.717364
73.551253,0.596626,-1.719547,-9.685789
73.584619,0.550536,-1.624374,-9.580740
73.617551,0.670400,-1.501817,-9.602289
73.651306,0.598871,-1.629612,-9.726043
73.684523,0.573581,-1.731668,-9.620395
73.717595,0.531083,-1.778955,-9.540935
73.751091,0.505344,-1.799157,-9.632068
73.784528,0.469729,-1.856171,-9.671424
73.817610,0.459853,-1.857967,-9.699557
73.851398,0.431720,-1.938624,-9.403862
73.884471,0.446983,-1.840608,-9.539289
73.917550,0.487686,-1.759352,-9.705393
73.951097,0.508038,-1.750972,-9.681150
73.984243,0.526743,-1.771922,-9.619049
74.017631,0.445487,-1.827290,-9.568170
74.051391,0.433665,-1.771473,-9.543479
74.084571,0.389670,-1.797062,-9.580291
74.117677,0.360340,-1.904057,-9.547070
74.151135,0.420197,-1.905853,-9.659452
74.184504,0.395207,-1.857219,-9.634611
74.217748,0.419599,-1.820107,-9.605281
74.251190,0.463444,-1.753815,-9.649875
74.284478,0.460451,-1.819209,-9.645386
74.317503,0.455513,-1.824596,-9.660799
74.351207,0.452371,-1.799456,-9.564579
74.383820,0.424537,-1.811278,-9.567571
74.417289,0.354205,-1.765787,-9.528515
74.451071,0.347770,-1.806789,-9.569517
74.484488,0.344628,-1.874727,-9.640747
74.517703,0.349117,-1.892834,-9.698808
74.551125,0.372910,-1.846295,-9.562484
74.584495,0.413164,-1.832528,-9.601840
74.617467,0.381141,-1.828338,-9.551410
74.651019,0.365428,-1.835071,-9.604982
74.684412,0.365727,-1.848539,-9.700454
74.717539,0.330262,-1.861558,-9.631319
74.750923,0.348518,-1.889990,-9.599894
74.784572,0.355701,-1.852430,-9.598248
74.817535,0.329963,-1.821454,-9.569666
74.851076,0.334003,-1.781948,-9.526869
74.882220,0.367373,-1.841506,-9.626830
74.917475,0.346723,-1.828038,-9.521182
74.950944,0.388922,-1.853178,-9.722153
74.984480,0.395207,-1.834623,-9.677409
75.017525,0.397601,-1.861259,-9.642243
75.050738,0.421395,-1.865898,-9.650474
75.084404,0.475116,-1.854974,-9.515645
75.117447,0.401193,-1.883705,-9.724846
75.151417,0.342832,-1.861858,-9.611866
75.184148,0.338642,-1.930394,-9.605132
75.217727,0.348518,-1.904206,-9.595106
75.250852,0.416905,-1.902261,-9.475541
75.284372,0.511629,-1.866945,-9.634761
75.317436,0.382487,-1.754564,-9.510557
75.350753,0.404934,-1.735110,-9.385306
75.381999,0.433216,-1.972294,-9.582236
75.417399,0.371563,-1.991598,-9.732927
75.450804,0.266065,-1.985014,-9.652419
75.483692,0.342832,-1.896575,-9.785601
75.517682,0.337894,-1.980674,-9.715718
75.550621,0.352409,-1.943114,-9.536895
75.584006,0.401193,-1.937128,-9.451598
75.617595,0.475715,-1.994591,-9.612913
75.651568,0.455962,-1.887147,-9.875836
75.684048,0.398050,-1.847043,-9.566823
75.717367,0.220424,-1.916477,-9.346100
75.751360,0.159819,-1.886698,-9.690877
75.784084,0.093976,-1.888494,-9.591664
75.817641,0.136025,-1.928000,-9.669628
75.850851,0.175531,-1.896275,-9.570564
75.882524,0.210997,-1.973641,-9.512204
75.917393,0.211296,-1.985014,-9.689082
75.950638,0.228505,-1.932190,-9.630421
75.982123,0.301082,-2.031852,-9.764352
76.017322,0.322181,-2.061631,-9.725594
76.050789,0.180469,-2.004617,-9.303901
76.083969,0.175830,-1.948052,-9.292528
76.117565,0.168348,-1.905553,-9.726343
76.150927,-0.063000,-1.749476,-9.439178
76.184047,0.058211,-1.702039,-9.465365
76.217239,0.250652,-1.913185,-9.590168
76.250859,0.271003,-2.066270,-9.807150
76.284071,0.327119,-2.042926,-9.513550
76.317474,0.471076,-2.117148,-9.646284
76.350171,0.376352,-1.981572,-9.520584
76.383937,-0.120912,-1.980075,-8.947002
76.417545,0.000150,-2.184937,-9.981035
76.450651,0.085895,-2.208131,-10.299325
76.482063,0.125999,-1.946107,-9.279658
76.517330,0.117320,-1.637543,-9.125227
76.551155,0.096819,-1.662683,-9.779316
76.584029,0.128543,-1.793321,-9.818822
76.617563,0.222968,-2.125828,-9.923722
76.650562,0.181367,-2.181495,-9.842166
76.684103,0.188849,-1.993543,-9.282502
76.717662,0.036513,-1.824896,-9.155754
76.750629,-0.158622,-1.790628,-9.353582
76.784095,-0.098315,-1.796015,-9.456985
76.817635,-0.011523,-1.857967,-9.675614
76.850634,0.089337,-2.008358,-9.695367
76.883975,-0.021549,-2.084676,-9.692374
76.917632,-0.004040,-2.051904,-9.587474
76.950552,-0.038009,-2.084526,-9.557096
76.983987,-0.142759,-2.086771,-9.505769
77.017580,-0.066591,-2.032750,-9.545125
77.050493,0.038159,-1.932639,-9.720058
77.084002,0.129890,-1.902560,-9.733825
77.117584,0.165206,-2.032002,-9.550961
77.150499,0.208752,-2.072854,-9.609471
77.184139,0.142011,-2.057591,-9.464168
77.217194,0.143059,-2.046966,-9.430798
77.250501,0.107294,-2.045619,-9.531507
77.284035,0.052824,-2.014044,-9.500831
77.317172,0.035615,-2.037239,-9.524025
77.350575,0.028133,-2.082880,-9.618001
77.384082,-0.009278,-2.078391,-9.583733
77.417141,0.018705,-2.156804,-9.634611
77.450542,0.142161,-2.138098,-9.730084
77.484018,0.230899,-2.136003,-9.606928
77.517441,0.219526,-2.053849,-9.527617
77.550705,0.182864,-1.976634,-9.523277
77.583634,0.092928,-1.952541,-9.533154
77.617529,0.038758,-1.952691,-9.471201
77.650426,0.010026,-1.971845,-9.547220
77.684051,0.052824,-1.977831,-9.592412
77.717284,0.046689,-2.016888,-9.587025
77.750846,0.149643,-2.084676,-9.836031
77.783977,0.202168,-2.065073,-9.689830
77.817134,0.245863,-2.025118,-9.537344
77.850430,0.208752,-1.878318,-9.483173
77.883930,0.141562,-1.882209,-9.707338
77.917544,0.049233,-1.932190,-9.582236
77.950466,0.102805,-2.000128,-9.645984
77.984042,0.107294,-1.973641,-9.589120
78.017491,0.088289,-1.916028,-9.601989
78.050496,0.058660,-1.961969,-9.486166
78.084011,0.092479,-1.916178,-9.686538
78.117562,0.035765,-1.921266,-9.585828
78.150480,0.111933,-1.946256,-9.533602
78.184114,0.163859,-1.984864,-9.574156
78.217524,0.057014,-2.027512,-9.581339
78.250479,0.119265,-1.982470,-9.632217
78.283925,0.096520,-1.949099,-9.700155
78.317459,0.065843,-2.038885,-9.514149
78.350354,0.153384,-2.150519,-9.575652
78.383939,0.168049,-2.012249,-9.554104
78.417062,0.194237,-1.988455,-9.522978
78.450681,0.203065,-1.933836,-9.651371
78.483966,0.159220,-1.853178,-9.400869
78.517281,0.206358,-1.878318,-9.534500
78.550455,0.151588,-1.941767,-9.572809
78.583745,0.177327,-2.114455,-9.534051
78.617380,0.228654,-2.219355,-9.461924
78.650265,0.179272,-2.152165,-9.526719
78.684057,0.121211,-1.876822,-9.811789
78.716818,0.057613,-1.791376,-9.743252
78.750687,0.139767,-1.834174,-9.615158
78.783811,0.174783,-1.980375,-9.472698
78.817556,0.178524,-1.943712,-9.482574
78.850393,0.252298,-1.796464,-9.686388
78.883842,0.252597,-1.818760,-9.639849
78.917543,0.290607,-1.790927,-9.506517
78.950395,0.327568,-1.803946,-9.522379
78.984159,0.334003,-1.934434,-9.787247
79.017358,0.290607,-1.944311,-9.776473
79.050666,0.321433,-1.926054,-9.677260
79.083917,0.304074,-1.769378,-9.490206
79.117513,0.340887,-1.769827,-9.672172
79.150466,0.345675,-1.770126,-9.805504
79.183941,0.349117,-1.759502,-9.699108
79.217449,0.299286,-1.910043,-9.481227
79.250381,0.226410,-1.923660,-9.338767
79.283714,0.208004,-1.807836,-9.626830
79.317348,0.230749,-1.842554,-9.690279
79.350622,0.266065,-1.907050,-9.621593
79.383987,0.381141,-1.897323,-9.665887
79.417427,0.328915,-1.867993,-9.637604
79.450691,0.279383,-1.761746,-9.625334
79.484030,0.262174,-1.774167,-9.547669
79.517202,0.279533,-1.775214,-9.591215
79.550664,0.272350,-1.818910,-9.702549
79.584090,0.263222,-1.854525,-9.654963
79.617282,0.288811,-1.854974,-9.642243
79.650637,0.254692,-1.828786,-9.483023
79.683808,0.215336,-1.783445,-9.571313
79.717248,0.219676,-1.770875,-9.701801
79.750607,0.211894,-1.810829,-9.532854
79.783452,0.255441,-1.804694,-9.591514
79.816973,0.214139,-1.768331,-9.573408
79.850384,0.219825,-1.800953,-9.676661
79.884292,0.249006,-1.804694,-9.698509
79.917196,0.278635,-1.731219,-9.654664
79.950643,0.287314,-1.769827,-9.634462
79.984214,0.228954,-1.817863,-9.636856
80.017484,0.199773,-1.757407,-9.631319
80.050301,0.220274,-1.729723,-9.655113
80.083806,0.224464,-1.767283,-9.666934
80.117700,0.246761,-1.830133,-9.576700
80.150276,0.251849,-1.823998,-9.566823
80.183805,0.173287,-1.840309,-9.606778
80.217279,0.183612,-1.829535,-9.637006
80.250352,0.256787,-1.825494,-9.617253
80.282011,0.250802,-1.744388,-9.624585
80.316539,0.227008,-1.764290,-9.595704
80.350594,0.192890,-1.806041,-9.597650
80.383792,0.195733,-1.849288,-9.734723
80.416964,0.228056,-1.805592,-9.609023
80.449952,0.195284,-1.731668,-9.594956
80.484325,0.214289,-1.725982,-9.618300
80.517085,0.220424,-1.675552,-9.525522
80.550569,0.243020,-1.836269,-9.625334
80.583791,0.242871,-1.891188,-9.748639
80.617414,0.241673,-1.902860,-9.638951
80.650363,0.246462,-1.841057,-9.591365
80.683769,0.235239,-1.746782,-9.626980
80.717520,0.235239,-1.745735,-9.605730
80.750343,0.264419,-1.815019,-9.611716
80.782015,0.285519,-1.788233,-9.673070
80.816673,0.232695,-1.826093,-9.597650
80.850262,0.203215,-1.704583,-9.656310
80.882928,0.275493,-1.737355,-9.607526
80.916732,0.279234,-1.834323,-9.648678
80.950152,0.203215,-1.804544,-9.584631
80.984047,0.172987,-1.796015,-9.606479
81.017016,0.222369,-1.805293,-9.603486
81.050809,0.256039,-1.774017,-9.660949
81.083739,0.295844,-1.758454,-9.619946
81.117346,0.260229,-1.784642,-9.656010
81.150357,0.217132,-1.809034,-9.646284
81.183226,0.273098,-1.798110,-9.698808
81.217418,0.244666,-1.819359,-9.598398
81.250352,0.232246,-1.758754,-9.548716
81.284066,0.237334,-1.742592,-9.606329
81.317003,0.243020,-1.765188,-9.579992
81.350328,0.275343,-1.824896,-9.707937
81.381892,0.268310,-1.792423,-9.685041
81.417055,0.232844,-1.769827,-9.606628
81.450910,0.279683,-1.793920,-9.562783
81.483693,0.246163,-1.817563,-9.653466
81.517097,0.264120,-1.831181,-9.588970
81.550932,0.253944,-1.742891,-9.584032
81.583792,0.251849,-1.781350,-9.688782
81.617352,0.236735,-1.813074,-9.614410
81.650349,0.257236,-1.872781,-9.713024
81.683772,0.264419,-1.867245,-9.600044
81.717389,0.273248,-1.687823,-9.510258
81.750377,0.283274,-1.676899,-9.584780
81.783717,0.262324,-1.803946,-9.672770
81.816853,0.252597,-1.823848,-9.642094
81.850290,0.305122,-1.768630,-9.654215
81.883673,0.247659,-1.711466,-9.567272
81.917399,0.290457,-1.763392,-9.643291
81.950297,0.276839,-1.825644,-9.626231
81.983690,0.329813,-1.766685,-9.684293
82.016595,0.326371,-1.769229,-9.718561
82.050089,0.325324,-1.761297,-9.600942
82.083609,0.302728,-1.695006,-9.638053
82.117310,0.320984,-1.704134,-9.569666
82.150304,0.240327,-1.824297,-9.565327
82.184086,0.307816,-1.865000,-9.760012
82.216978,0.347920,-1.798409,-9.657507
82.250631,0.284920,-1.702338,-9.549165
82.283733,0.318141,-1.774765,-9.585678
82.317355,0.309013,-1.825045,-9.608274
82.350240,0.298388,-1.820855,-9.638053
82.383690,0.323229,-1.732117,-9.696264
82.416851,0.377848,-1.696352,-9.597650
82.450276,0.343580,-1.737654,-9.572061
82.483643,0.307067,-1.781200,-9.631020
82.517341,0.309013,-1.828487,-9.669029
82.550226,0.309312,-1.785689,-9.670376
82.583649,0.317393,-1.734811,-9.598996
82.617501,0.330711,-1.711915,-9.592562
82.650219,0.332806,-1.754863,-9.617552
82.683692,0.354504,-1.727927,-9.688782
82.717265,0.275942,-1.779105,-9.603186
82.750363,0.273547,-1.774466,-9.617552
82.784001,0.317692,-1.792573,-9.700754
82.816986,0.338492,-1.759651,-9.699257
82.850173,0.319787,-1.645923,-9.644488
82.883910,0.319338,-1.749625,-9.656010
82.917073,0.325773,-1.805143,-9.611118
82.950573,0.275193,-1.822501,-9.613362
82.983915,0.293300,-1.755611,-9.652718
83.016974,0.343131,-1.724485,-9.652569
83.050254,0.361687,-1.725982,-9.620844
83.083678,0.304823,-1.747979,-9.586426
83.116575,0.273098,-1.793171,-9.625932
83.150023,0.303326,-1.788383,-9.649576
83.183663,0.291804,-1.757706,-9.601540
83.217295,0.311856,-1.748428,-9.590317
83.250219,0.297041,-1.756210,-9.638502
83.283618,0.325773,-1.794069,-9.663942
83.317526,0.304673,-1.800504,-9.659153
83.350685,0.291654,-1.759502,-9.560239
83.383999,0.279383,-1.766984,-9.646882
83.416946,0.272051,-1.788383,-9.584780
83.450149,0.317243,-1.591004,-9.676811
83.484019,0.358545,-1.754564,-9.651371
83.516963,0.343281,-1.889242,-9.604982
83.550538,0.281628,-1.885800,-9.615008
83.583644,0.249006,-1.771024,-9.654215
83.617324,0.280132,-1.727777,-9.645835
83.650149,0.333554,-1.636346,-9.632816
83.683686,0.328317,-1.656547,-9.631319
83.717342,0.281329,-1.739450,-9.572659
83.750157,0.310808,-1.787784,-9.676362
83.783648,0.303476,-1.760849,-9.661248
83.817301,0.304374,-1.782846,-9.608723
83.850133,0.320685,-1.754414,-9.615607
83.883636,0.345974,-1.683334,-9.664690
83.917191,0.301231,-1.701590,-9.613961
83.950264,0.283124,-1.732267,-9.686837
83.983526,0.290607,-1.802150,-9.591065
84.017210,0.289858,-1.777908,-9.668132
84.050165,0.335051,-1.708474,-9.665139
84.083458,0.283573,-1.750523,-9.598248
84.116609,0.308414,-1.777160,-9.613063
84.150123,0.315447,-1.737804,-9.633414
84.183570,0.308115,-1.726580,-9.494246
84.216359,0.268310,-1.823998,-9.613961
84.250123,0.320685,-1.870387,-9.702998
84.283558,0.245265,-1.889691,-9.609471
84.317036,0.275343,-1.658642,-9.655113
84.350090,0.355252,-1.691564,-9.650174
84.383605,0.323827,-1.746184,-9.566524
84.417069,0.250951,-1.772371,-9.644039
84.450053,0.311407,-1.817414,-9.657357
84.483459,0.327568,-1.879216,-9.665887
84.517040,0.300483,-1.745585,-9.632217
84.549994,0.298238,-1.731668,-9.590168
84.583414,0.279683,-1.735559,-9.622191
84.617167,0.293899,-1.819509,-9.620844
84.650249,0.288362,-1.752169,-9.646433
84.683845,0.295395,-1.766834,-9.649725
84.716888,0.320086,-1.754264,-9.681450
84.750181,0.287614,-1.790777,-9.637305
84.783888,0.276989,-1.776112,-9.563082
84.816838,0.265616,-1.810829,-9.640747
84.850163,0.268759,-1.863653,-9.679953
84.883684,0.284471,-1.829385,-9.623089
84.916857,0.304823,-1.862905,-9.730832
84.950547,0.317542,-1.715207,-9.678756
84.983372,0.405083,-1.326136,-9.196307
85.016856,0.208902,-1.820556,-9.613063
85.050478,0.270405,-1.841955,-9.755074
85.083384,0.332956,-1.964064,-9.848751
85.116746,0.318440,-1.878019,-9.502626
85.150343,0.253495,-1.738701,-9.515496
85.183796,0.221172,-1.657146,-9.666336
85.216717,0.190346,-1.661635,-9.628326
85.250173,0.217880,-1.723587,-9.598248
85.283395,0.261127,-1.716105,-9.454591
85.316397,0.259182,-1.760100,-9.647630
85.349874,0.224913,-1.785240,-9.638203
85.383369,0.292851,-1.891038,-9.843962
85.417190,0.264868,-1.828936,-9.587624
85.450069,0.318440,-1.731070,-9.384558
85.483860,0.338343,-1.796015,-9.526270
85.516765,0.287614,-1.759951,-9.678307
85.550518,0.325773,-1.709371,-9.922973
85.583382,0.297191,-1.670165,-9.705243
85.616814,0.295694,-1.853478,-9.537344
85.650329,0.335200,-1.937577,-9.413589
85.683386,0.358395,-1.938624,-9.476738
85.716803,0.241973,-1.861259,-9.793383
85.750434,0.159519,-1.663581,-9.817774
85.783417,0.224464,-1.584569,-9.586726
85.816836,0.366625,-1.752917,-9.434389
85.850537,0.407029,-1.885202,-9.537194
85.883352,0.353756,-1.984415,-9.735770
85.916753,0.372312,-1.868442,-9.746844
85.950355,0.301979,-1.754264,-9.562334
85.983305,0.269208,-1.573346,-9.471800
86.016851,0.289409,-1.606866,-9.650474
86.050401,0.338043,-1.813523,-9.640298
86.083708,0.351062,-1.933237,-9.696863
86.116810,0.361088,-1.942814,-9.716616
86.150124,0.393711,-1.806041,-9.694768
86.183366,0.371264,-1.735858,-9.676063
86.216898,0.330412,-1.730321,-9.595854
86.250332,0.319937,-1.746932,-9.552009
86.283954,0.338343,-1.823250,-9.565626
86.316984,0.315747,-1.850784,-9.561586
86.350051,0.323378,-1.830582,-9.654813
86.383703,0.301082,-1.801103,-9.657357
86.416677,0.302728,-1.760849,-9.647481
86.450085,0.356898,-1.759053,-9.598398
86.483059,0.331160,-1.858116,-9.559491
86.516565,0.277288,-1.889691,-9.618899
86.550198,0.320236,-1.816216,-9.627279
86.583898,0.350613,-1.790777,-9.737416
86.616764,0.305870,-1.747830,-9.574305
86.650096,0.288362,-1.823699,-9.606778
86.683916,0.283573,-1.861708,-9.553954
86.716746,0.328466,-1.890439,-9.613661
86.750124,0.304673,-1.850784,-9.567871
86.783727,0.313951,-1.744837,-9.708535
86.816828,0.337445,-1.701291,-9.672322
86.850372,0.343580,-1.773867,-9.670675
86.883380,0.342832,-1.822202,-9.539888
86.916740,0.348967,-1.827739,-9.638801
86.950412,0.315597,-1.823549,-9.733077
86.983541,0.272500,-1.823100,-9.621593
87.017041,0.352858,-1.769229,-9.591814
87.050030,0.300184,-1.792274,-9.554104
87.083539,0.319787,-1.830732,-9.636557
87.116929,0.343879,-1.797212,-9.676063
87.150226,0.314101,-1.853328,-9.564579
87.183845,0.324127,-1.810380,-9.589120
87.216681,0.306319,-1.788532,-9.635210
87.250060,0.309312,-1.782098,-9.670227
87.283576,0.307816,-1.822950,-9.682946
87.316788,0.296742,-1.853178,-9.521930
87.350149,0.292253,-1.854076,-9.536895
87.383623,0.328616,-1.812326,-9.692374
87.416891,0.299436,-1.823848,-9.740409
87.450299,0.310509,-1.808136,-9.625184
87.483144,0.335200,-1.771772,-9.590317
87.516485,0.296143,-1.775813,-9.560239
87.549965,0.306469,-1.784043,-9.610369
87.583650,0.287165,-1.871884,-9.661996
87.616638,0.278186,-1.853478,-9.624735
87.650403,0.306169,-1.832677,-9.630721
87.683357,0.329813,-1.769677,-9.583434
87.716978,0.280581,-1.832677,-9.554104
87.750009,0.290756,-1.850036,-9.742654
87.783424,0.309162,-1.757107,-9.648977
87.816943,0.333554,-1.786138,-9.568170
87.849969,0.297640,-1.849437,-9.481976
87.883234,0.283573,-1.857219,-9.546621
87.916968,0.279982,-1.830283,-9.673818
87.949951,0.348818,-1.833425,-9.841119
87.983660,0.331758,-1.800504,-9.551111
88.016912,0.334003,-1.787485,-9.521032
88.050154,0.281029,-1.790628,-9.597051
88.083258,0.259780,-1.771324,-9.618001
88.116863,0.389521,-1.769079,-9.736818
88.150112,0.362585,-1.807088,-9.454741
88.183357,0.348967,-1.874128,-9.616954
88.216613,0.303775,-1.864401,-9.680552
88.250202,0.322032,-1.780751,-9.673968
88.283234,0.336996,-1.780152,-9.646134
88.316718,0.321583,-1.729872,-9.603186
88.350183,0.313801,-1.712813,-9.474344
88.383221,0.326970,-1.815169,-9.628326
88.416615,0.329514,-1.861708,-9.797124
88.449971,0.355103,-1.801402,-9.746245
88.483297,0.379943,-1.703535,-9.475391
88.516733,0.351062,-1.760699,-9.499334
88.550055,0.273398,-1.856021,-9.588671
88.582889,0.319188,-1.860660,-9.819421
88.616725,0.339390,-1.833725,-9.751483
88.650004,0.341485,-1.812326,-9.467460
88.683239,0.344179,-1.727628,-9.498287
88.716652,0.297939,-1.701590,-9.622790
88.750376,0.318291,-1.768780,-9.768093
88.783215,0.362435,-1.836867,-9.665737
88.816594,0.398649,-1.847641,-9.565327
88.850377,0.347770,-1.867394,-9.603186
88.883157,0.318739,-1.746782,-9.613961
88.916627,0.329364,-1.747081,-9.793233
88.950231,0.310509,-1.808884,-9.499933
88.983439,0.357497,-1.872183,-9.621892
89.016332,0.339839,-1.814421,-9.656010
89.050256,0.355701,-1.725832,-9.753578
89.083596,0.348518,-1.685877,-9.679355
89.116573,0.334901,-1.767283,-9.467161
89.149972,0.317542,-1.851383,-9.483023
89.183512,0.335051,-1.914382,-9.758067
89.216620,0.322780,-1.904356,-9.545275
89.249887,0.349716,-1.866496,-9.469106
89.283619,0.282227,-1.862606,-9.647331
89.316660,0.265766,-1.732117,-9.751632
89.350434,0.346723,-1.703984,-9.749687
89.383137,0.346872,-1.776561,-9.393986
89.416590,0.325922,-1.845247,-9.433042
89.450204,0.314549,-1.865748,-9.764651
89.483174,0.330262,-1.896724,-9.911152
89.516438,0.415409,-1.773867,-9.671873
89.550395,0.353307,-1.815768,-9.440674
89.583168,0.304224,-1.733165,-9.523427
89.616699,0.317243,-1.735110,-9.820169
89.650025,0.266963,-1.777609,-9.792036
89.682896,0.351661,-1.740347,-9.561286
89.716673,0.388174,-1.794219,-9.446510
89.749911,0.333255,-1.842554,-9.574156
89.783471,0.311407,-1.914083,-9.801763
89.816548,0.309911,-1.855124,-9.472548
89.850001,0.311706,-1.834623,-9.538541
89.883423,0.224315,-1.740497,-9.568769
89.916616,0.292702,-1.661635,-9.773330
89.950093,0.278785,-1.669566,-9.724547
89.983426,0.327868,-1.744089,-9.571911
90.016573,0.290008,-1.876822,-9.464467
90.049958,0.291355,-1.922762,-9.547070
90.083543,0.277139,-1.867095,-9.711378
90.116624,0.275343,-1.768630,-9.649276
90.149997,0.285070,-1.655350,-9.516693
90.183440,0.304673,-1.692013,-9.646882
90.216555,0.312155,-1.801851,-9.666785
90.249943,0.368720,-1.850634,-9.771535
90.283473,0.302129,-1.806340,-9.747742
90.316554,0.224464,-1.772072,-9.436185
90.349981,0.236735,-1.779255,-9.532106
90.383332,0.250802,-1.732267,-9.510857
90.416766,0.281179,-1.784791,-9.700903
90.450079,0.254094,-1.890888,-9.732029
90.483331,0.269657,-1.839561,-9.669478
90.516511,0.319488,-1.725533,-9.650324
90.550041,0.313352,-1.624075,-9.645535
90.583334,0.205759,-1.695604,-9.606030
90.616169,0.210847,-1.721193,-9.536745
90.649956,0.253794,-1.841207,-9.784703
90.683050,0.232246,-1.820706,-9.615158
90.716341,0.231049,-1.784941,-9.589120
90.750048,0.222070,-1.760699,-9.538541
90.782793,0.175382,-1.738701,-9.531059
90.816236,0.227457,-1.793770,-9.745198
90.849690,0.244966,-1.773718,-9.791886
90.883240,0.195434,-1.722839,-9.570864
90.916475,0.244217,-1.653405,-9.535847
90.950287,0.195583,-1.699345,-9.554852
90.983104,0.218778,-1.704433,-9.658554
91.016425,0.256488,-1.731818,-9.730682
91.050328,0.170294,-1.809931,-9.555151
91.083005,0.209799,-1.819658,-9.629973
91.116409,0.220574,-1.725682,-9.627429
91.150068,0.223118,-1.645025,-9.606479
91.183263,0.241524,-1.693809,-9.735172
91.216599,0.182714,-1.785240,-9.594956
91.250002,0.237932,-1.724785,-9.713174
91.283439,0.209201,-1.700243,-9.666336
91.316447,0.214887,-1.707875,-9.633863
91.349862,0.192890,-1.708474,-9.517591
91.383413,0.220574,-1.777459,-9.612614
91.416367,0.206208,-1.744238,-9.755822
91.449970,0.192740,-1.736157,-9.761808
91.483249,0.227457,-1.702787,-9.565028
91.516633,0.173137,-1.708025,-9.462672
91.549860,0.202018,-1.711317,-9.730832
91.583228,0.181218,-1.699944,-9.579842
91.616752,0.206956,-1.789879,-9.731281
91.650030,0.228205,-1.753666,-9.693122
91.683279,0.224614,-1.685279,-9.670975
91.716465,0.228056,-1.599533,-9.633863
91.749704,0.163260,-1.694557,-9.553206
91.783336,0.207854,-1.813224,-9.679654
91.816202,0.202916,-1.903907,-9.641944
91.850006,0.238381,-1.725982,-9.683096
91.882744,0.187652,-1.619137,-9.594058
91.916658,0.145154,-1.619436,-9.629973
91.949857,0.159070,-1.689020,-9.474045
91.983290,0.239728,-1.780901,-9.726792
92.016455,0.208004,-1.765487,-9.672471
92.049707,0.225961,-1.684082,-9.572360
92.083102,0.215336,-1.633053,-9.591365
92.117011,0.230600,-1.834323,-9.746544
92.149973,0.222519,-1.916477,-9.755074
92.182967,0.307666,-1.856171,-9.674716
92.216265,0.214887,-1.751122,-9.541234
92.249957,0.214738,-1.638740,-9.585080
92.283060,0.202766,-1.607165,-9.809245
92.316155,0.188550,-1.746782,-9.702400
92.349822,0.232994,-1.797062,-9.514598
92.383192,0.254842,-1.771024,-9.569966
92.416308,0.183462,-1.790777,-9.655711
92.449708,0.161016,-1.760849,-9.546322
92.483374,0.224913,-1.751571,-9.652868
92.516342,0.121959,-1.827440,-9.701652
92.549681,0.153534,-1.763093,-9.624585
92.583175,0.202317,-1.679144,-9.683694
92.616548,0.194536,-1.622429,-9.535847
92.649610,0.195434,-1.675552,-9.511605
92.683349,0.170144,-1.830881,-9.717813
92.716666,0.158622,-1.906152,-9.782309
92.749935,0.194386,-1.827290,-9.619198
92.783193,0.191543,-1.739599,-9.563980
92.816207,0.128094,-1.606417,-9.538241
92.849807,0.178075,-1.637692,-9.736369
92.883057,0.191244,-1.761746,-9.666336
92.916161,0.185857,-1.885950,-9.628027
92.949814,0.200522,-1.790777,-9.695516
92.982747,0.168049,-1.699046,-9.681599
93.016150,0.129591,-1.670015,-9.586127
93.049759,0.115375,-1.758155,-9.504871
93.083384,0.153983,-1.856171,-9.562633
93.116352,0.147398,-1.865898,-9.671873
93.149985,0.144106,-1.798259,-9.726941
93.183224,0.159819,-1.694557,-9.636856
93.216552,0.190795,-1.671212,-9.578795
93.250004,0.152486,-1.737953,-9.583134
93.283344,0.121510,-1.796164,-9.583583
93.316287,0.140814,-1.782547,-9.760312
93.349798,0.138569,-1.784492,-9.618151
93.383386,0.148745,-1.782846,-9.527916
93.416257,0.187353,-1.783744,-9.622640
93.449662,0.144405,-1.802599,-9.625034
93.483358,0.148745,-1.769528,-9.741307
93.516421,0.154132,-1.720295,-9.743851
93.549493,0.151888,-1.700094,-9.581189
93.583313,0.146650,-1.686027,-9.494097
93.616451,0.175082,-1.766086,-9.665288
93.649814,0.136624,-1.869789,-9.775126
93.683020,0.191244,-1.831181,-9.697013
93.716495,0.174484,-1.784342,-9.516244
93.749817,0.128693,-1.794518,-9.548268
93.783099,0.047736,-1.802449,-9.586576
93.816398,0.114028,-1.799307,-9.704195
93.849582,0.095173,-1.903309,-9.654664
93.883123,0.151289,-1.954935,-9.553206
93.916506,0.104600,-1.893283,-9.513850
93.949660,0.095023,-1.859314,-9.516693
93.983066,0.041152,-1.919620,-9.595555
94.016247,0.103403,-1.913784,-9.748041
94.049815,0.133482,-1.915280,-9.480779
94.083141,0.098016,-1.951494,-9.587474
94.115920,0.083650,-1.848390,-9.583134
94.149505,0.082453,-1.918872,-9.659452
94.182951,0.090085,-1.913335,-9.604234
94.216569,0.138869,-1.916328,-9.612913
94.249702,0.121211,-1.931890,-9.567123
94.283344,0.149344,-1.889242,-9.651970
94.316258,0.121510,-1.874577,-9.611417
94.349590,0.112382,-1.837915,-9.683844
94.383403,0.112831,-1.845247,-9.607227
94.416206,0.132135,-1.917076,-9.577897
94.449540,0.149793,-1.945508,-9.646733
94.483326,0.132434,-1.918872,-9.591514
94.516211,0.112831,-1.878019,-9.641046
94.549764,0.099662,-1.829086,-9.594208
94.583138,0.107144,-1.863953,-9.567123
94.616647,0.124653,-1.904506,-9.554253
94.649611,0.147099,-1.917076,-9.635958
94.683023,0.130189,-1.861409,-9.625633
94.716608,0.126448,-1.859912,-9.597051
94.749553,0.115824,-1.874428,-9.589419
94.782978,0.093078,-1.889841,-9.610519
94.816594,0.129292,-1.896575,-9.637904
94.849557,0.132434,-1.915130,-9.678307
94.882938,0.111035,-1.856620,-9.522379
94.916678,0.115824,-1.861558,-9.552906
94.949621,0.117170,-1.825345,-9.605880
94.983288,0.116273,-1.839112,-9.660200
95.016186,0.124353,-1.923510,-9.627728
95.049569,0.137821,-1.891487,-9.559191
95.083252,0.124952,-1.896874,-9.640448
95.116165,0.099961,-1.828038,-9.656759
95.149510,0.115674,-1.821005,-9.652120
95.183166,0.117470,-1.850634,-9.601091
95.216183,0.133631,-1.900465,-9.589419
95.249418,0.147249,-1.912886,-9.658704
95.283147,0.123156,-1.897772,-9.622939
95.316196,0.090833,-1.862905,-9.555001
95.349504,0.079760,-1.816216,-9.553206
95.383124,0.093078,-1.853478,-9.603486
95.416519,0.125999,-1.901214,-9.675763
95.449589,0.119415,-1.889541,-9.644039
95.482947,0.128843,-1.867245,-9.575353
95.516464,0.089786,-1.871584,-9.522679
95.549588,0.107893,-1.841057,-9.660949
95.582856,0.134529,-1.847342,-9.698359
95.616520,0.092330,-1.856321,-9.604833
95.649592,0.107144,-1.848240,-9.607077
95.683247,0.105648,-1.818910,-9.592263
95.716241,0.103403,-1.808136,-9.609621
95.749614,0.096071,-1.899418,-9.649576
95.783162,0.110436,-1.874278,-9.673519
95.816216,0.117021,-1.845846,-9.601241
95.849625,0.109389,-1.774017,-9.579393
95.883149,0.115524,-1.792124,-9.621742
95.916326,0.090684,-1.819808,-9.625483
95.950087,0.135277,-1.905254,-9.700903
95.982911,0.115375,-1.878468,-9.620695
96.016165,0.124204,-1.852131,-9.621742
96.049633,0.083650,-1.824896,-9.538391
96.082880,0.087691,-1.810530,-9.595106
96.116942,0.112382,-1.851532,-9.688932
96.149577,0.118218,-1.852131,-9.608574
96.183045,0.125850,-1.879515,-9.598398
96.216196,0.102056,-1.843601,-9.580441
96.249720,0.109688,-1.822950,-9.619049
96.283057,0.106246,-1.859014,-9.660500
96.316303,0.091881,-1.875475,-9.604384
96.349563,0.116871,-1.860211,-9.588970
96.382899,0.127346,-1.863354,-9.636856
96.416173,0.103254,-1.810231,-9.561286
96.449516,0.116871,-1.821155,-9.651970
96.483023,0.091432,-1.859463,-9.587474
96.516241,0.122408,-1.880114,-9.672022
96.549690,0.123755,-1.866197,-9.630272
96.582954,0.114477,-1.798559,-9.601091
96.616573,0.090235,-1.794518,-9.593909
96.649566,0.118667,-1.834623,-9.609920
96.682899,0.132434,-1.883556,-9.640896
96.716500,0.139467,-1.897772,-9.659452
96.749509,0.112831,-1.882957,-9.654364
96.782858,0.090235,-1.830433,-9.570714
96.816470,0.101009,-1.781948,-9.586426
96.849563,0.106396,-1.817713,-9.631918
96.883190,0.090384,-1.866796,-9.619198
96.916191,0.154132,-1.898071,-9.654065
96.949565,0.121211,-1.872482,-9.595405
96.983084,0.101608,-1.796164,-9.595106
97.016259,0.098914,-1.766086,-9.633265
97.049836,0.108940,-1.816067,-9.641345
97.082865,0.137522,-1.877420,-9.596303
97.116184,0.135277,-1.913185,-9.600194
97.149827,0.124054,-1.826841,-9.642842
97.182957,0.133631,-1.807986,-9.661996
97.216410,0.138869,-1.818012,-9.620545
97.249562,0.148895,-1.798708,-9.639101
97.282926,0.134529,-1.866945,-9.557096
97.316400,0.123007,-1.932040,-9.664390
97.349602,0.145004,-1.824297,-9.628775
97.382781,0.133631,-1.788832,-9.664091
97.416234,0.110436,-1.746932,-9.551709
97.449585,0.135277,-1.824148,-9.597350
97.483096,0.161016,-1.877420,-9.663343
97.516197,0.160118,-1.905254,-9.665887
97.549516,0.160417,-1.867694,-9.605880
97.583228,0.124353,-1.826093,-9.569966
97.616230,0.115524,-1.803946,-9.572210
97.649688,0.125850,-1.823100,-9.609322
97.682920,0.151289,-1.828936,-9.612015
97.716414,0.153085,-1.886998,-9.628027
97.749540,0.154432,-1.823549,-9.585828
97.782863,0.151289,-1.805442,-9.608424
97.816392,0.165954,-1.817264,-9.629075
97.849550,0.171192,-1.831630,-9.603785
97.883064,0.152785,-1.854974,-9.607077
97.916195,0.187353,-1.837017,-9.701502
97.950221,0.131686,-1.841656,-9.629973
97.983070,0.175681,-1.826542,-9.614110
98.016198,0.184210,-1.840159,-9.597051
98.049567,0.188700,-1.844798,-9.690428
98.083122,0.198726,-1.778207,-9.571911
98.116185,0.181816,-1.798559,-9.660051
98.149527,0.164907,-1.847043,-9.616056
98.182999,0.162812,-1.829984,-9.633265
98.216178,0.185707,-1.784492,-9.635360
98.249685,0.193638,-1.799456,-9.613362
98.283066,0.205909,-1.771772,-9.604234
98.316272,0.164009,-1.803946,-9.597201
98.350146,0.162812,-1.778506,-9.683245
98.383090,0.187353,-1.822801,-9.636108
98.416230,0.192590,-1.845098,-9.561436
98.449655,0.189897,-1.817563,-9.619498
98.483028,0.154132,-1.785240,-9.623688
98.516235,0.158322,-1.777758,-9.640597
98.549519,0.174633,-1.800354,-9.614110
98.582822,0.171940,-1.794967,-9.568469
98.616369,0.159370,-1.813972,-9.652868
98.649694,0.168797,-1.799157,-9.597201
98.682968,0.168648,-1.814271,-9.586875
98.716225,0.168947,-1.789281,-9.655412
98.749626,0.154581,-1.794219,-9.641944
98.782845,0.171341,-1.821454,-9.594058
98.816229,0.174184,-1.804395,-9.627878
98.849693,0.177626,-1.821304,-9.685490
98.882893,0.172538,-1.805592,-9.563381
98.916223,0.157424,-1.784193,-9.601241
98.949635,0.172838,-1.847342,-9.678307
98.982876,0.172688,-1.835071,-9.638951
99.016223,0.155479,-1.834024,-9.569966
99.049767,0.174334,-1.777758,-9.641495
99.082851,0.149793,-1.760549,-9.597949
99.116181,0.146500,-1.789281,-9.630272
99.149590,0.179721,-1.849437,-9.628925
99.182853,0.193339,-1.881161,-9.668431
99.216413,0.180769,-1.858565,-9.603037
99.250152,0.146800,-1.830732,-9.580890
99.282965,0.122109,-1.793471,-9.609471
99.316185,0.120762,-1.791675,-9.621593
99.349913,0.142759,-1.842254,-9.597201
99.383002,0.145453,-1.854675,-9.638053
99.416237,0.165954,-1.865299,-9.622939
99.450008,0.141413,-1.811877,-9.600643
99.483075,0.147997,-1.820406,-9.622490
99.516233,0.126897,-1.830582,-9.580291
99.550059,0.149942,-1.847492,-9.623388
99.583033,0.134379,-1.875625,-9.666934
99.616189,0.132135,-1.858565,-9.593759
99.649932,0.141113,-1.838214,-9.632516
99.682782,0.127795,-1.818611,-9.549016
99.716256,0.145752,-1.834323,-9.691326
99.749933,0.155928,-1.805741,-9.632367
99.782980,0.131536,-1.876074,-9.600792
99.816190,0.147099,-1.924408,-9.609471
99.849575,0.145453,-1.855273,-9.629973
99.882954,0.126598,-1.811278,-9.595704
99.916200,0.120762,-1.791525,-9.638353
99.949725,0.146650,-1.817114,-9.610369
99.982976,0.149643,-1.865150,-9.647181
100.016223,0.165355,-1.911090,-9.597799
100.049768,0.169097,-1.907798,-9.623837
100.082927,0.124802,-1.852580,-9.606778
100.116284,0.111634,-1.818611,-9.594358
100.149546,0.109090,-1.830433,-9.598847
100.182858,0.147099,-1.889841,-9.628027
100.216225,0.154282,-1.900316,-9.617403
100.249833,0.147698,-1.858266,-9.603186
100.282904,0.123306,-1.846145,-9.609771
100.316260,0.136325,-1.844200,-9.617103
100.349495,0.129591,-1.876223,-9.646284
100.382873,0.133182,-1.884903,-9.594657
100.416188,0.147698,-1.898221,-9.596602
100.449627,0.117021,-1.852280,-9.601690
100.482875,0.123904,-1.848988,-9.603486
100.516199,0.130040,-1.855872,-9.601840
100.549584,0.149942,-1.898969,-9.660350
100.583219,0.138270,-1.900615,-9.631619
100.616214,0.153384,-1.830283,-9.640148
100.649591,0.111484,-1.862456,-9.516543
100.683124,0.136325,-1.905853,-9.618001
100.716261,0.139318,-1.899418,-9.658854
100.749571,0.137672,-1.882359,-9.597500
100.782924,0.144555,-1.810530,-9.648828
100.816254,0.126149,-1.817114,-9.589419
100.849551,0.165206,-1.864252,-9.605132
100.882887,0.190346,-1.917674,-9.631918
100.916211,0.165206,-1.917375,-9.639400
100.949527,0.132883,-1.883256,-9.634761
100.982894,0.113729,-1.831630,-9.545724
101.016356,0.118218,-1.824447,-9.561286
101.049549,0.157424,-1.879066,-9.650623
101.082851,0.152337,-1.908845,-9.665139
101.116260,0.148446,-1.917375,-9.577448
101.149575,0.171341,-1.868442,-9.604533
101.183102,0.148745,-1.838064,-9.618749
101.216296,0.149044,-1.846893,-9.615607
101.249572,0.167750,-1.879815,-9.628476
101.282854,0.149344,-1.876672,-9.614709
101.316174,0.146949,-1.870836,-9.577448
101.349590,0.153983,-1.871435,-9.613362
101.382848,0.138420,-1.821604,-9.594657
101.416196,0.155778,-1.827290,-9.696713
101.449519,0.169994,-1.807687,-9.579094
101.482990,0.177177,-1.871435,-9.627728
101.516184,0.177925,-1.935482,-9.640747
101.549587,0.157275,-1.865449,-9.667084
101.582966,0.147997,-1.826991,-9.559640
101.616204,0.168498,-1.785689,-9.586875
101.649648,0.130938,-1.801402,-9.608574
101.683028,0.137223,-1.855124,-9.645685
101.716188,0.161914,-1.924857,-9.662295
101.749523,0.177327,-1.907199,-9.596453
101.782967,0.181068,-1.862755,-9.597201
101.816308,0.142161,-1.826991,-9.617103
101.849622,0.147548,-1.823998,-9.581788
101.882908,0.147249,-1.877869,-9.562334
101.916189,0.172089,-1.901064,-9.640298
101.949597,0.161764,-1.860660,-9.623089
101.982861,0.149942,-1.827290,-9.610070
102.016226,0.148147,-1.810081,-9.568469
102.050301,0.151588,-1.848539,-9.651072
102.083074,0.146500,-1.910342,-9.646583
102.116196,0.161016,-1.914532,-9.627129
102.150243,0.141263,-1.822352,-9.571013
102.182981,0.141562,-1.806041,-9.587474
102.216254,0.162812,-1.829984,-9.689830
