time_tick,acc_X_value,acc_Y_value,acc_Z_value
0.009300,0.411219,-7.939606,-10.246053
0.038792,0.654089,-8.804841,-10.465878
0.072127,0.264569,-8.376264,-9.348943
0.105489,-0.261875,-7.679975,-8.362048
0.138833,-0.446235,-7.366174,-6.602845
0.172156,-0.405383,-7.042047,-6.114261
0.205475,-0.199773,-6.917096,-4.777351
0.238830,-0.213241,-6.397535,-3.381182
0.272220,-0.109389,-6.568428,-2.333083
0.305536,0.235089,-6.597458,-2.198105
0.338896,0.198726,-6.952561,-1.646521
0.372161,0.330412,-7.389668,-1.767582
0.405526,0.531232,-7.604855,-1.513489
0.438865,0.325773,-8.518874,-1.108405
0.472152,-0.234042,-8.356661,-1.178289
0.505500,-0.128843,-8.081018,-1.115738
0.538849,0.063149,-8.736155,-1.731668
0.572161,0.114327,-9.204388,-1.555688
0.605535,0.172838,-9.421370,-0.966693
0.638835,-0.297490,-9.465814,-0.441896
0.672172,-0.168348,-9.465814,-0.448181
0.705512,-0.257835,-9.544377,-0.587648
0.738931,-0.336397,-9.457584,-0.699581
0.772157,-0.503100,-9.333979,-0.432767
0.805543,-0.470926,-9.055493,-0.565650
0.838859,-0.422741,-9.284297,-0.367673
0.872149,-0.317991,-9.064472,-0.410920
0.905490,-0.641669,-9.441572,-0.948138
0.938826,-0.291056,-9.974900,-2.081683
0.972161,-0.422592,-9.821216,-1.709222
1.005497,-0.301979,-10.094614,-1.571850
1.038898,-0.214738,-10.161654,-1.641433
1.072166,-0.540061,-10.012460,-1.308777
1.105481,-0.407029,-10.017099,-1.367737
1.138828,-0.334003,-9.950807,-1.474731
1.172155,-0.234790,-9.865361,-1.720595
1.205474,-0.194835,-9.670077,-1.721492
1.238835,-0.402240,-9.457883,-1.847342
1.272243,-0.470328,-9.446959,-1.951494
1.305506,-0.596028,-9.488111,-2.104878
1.338835,-0.623712,-9.550512,-2.273076
1.372161,-0.647655,-9.620545,-2.314827
1.405543,-0.686263,-9.615457,-2.265744
1.438830,-0.818996,-9.588521,-2.067317
1.472233,-0.872119,-9.501878,-2.056393
1.505363,-0.820941,-9.502028,-2.059686
1.538824,-0.722626,-9.554852,-2.066120
1.572164,-0.656484,-9.582835,-2.189426
1.605491,-0.537368,-9.596303,-2.287143
1.638822,-0.541259,-9.482724,-2.213518
1.672170,-0.473620,-9.462821,-2.257513
1.705482,-0.461050,-9.483023,-2.213369
1.738829,-0.441596,-9.497838,-2.230877
1.772161,-0.449976,-9.530909,-2.213219
1.805544,-0.534375,-9.520584,-2.148424
1.838826,-0.519261,-9.562933,-2.193167
1.872238,-0.499807,-9.575951,-2.233870
1.905511,-0.495019,-9.558144,-2.234618
1.938825,-0.551135,-9.558892,-2.229680
1.972190,-0.555774,-9.564579,-2.303005
2.005555,-0.588396,-9.576251,-2.353884
2.038817,-0.505045,-9.605281,-2.405361
2.072229,-0.499807,-9.581488,-2.387553
2.105527,-0.519710,-9.552607,-2.371990
2.138798,-0.506691,-9.531059,-2.337423
2.172057,-0.459404,-9.526420,-2.331287
2.205474,-0.465240,-9.506966,-2.315126
2.238818,-0.447732,-9.519536,-2.323805
2.272215,-0.503399,-9.489907,-2.313181
2.305480,-0.465988,-9.531507,-2.339518
2.338835,-0.442195,-9.517740,-2.397579
2.372216,-0.401791,-9.568020,-2.370344
2.405513,-0.416307,-9.578495,-2.343259
2.438830,-0.400145,-9.572809,-2.397879
2.472160,-0.382188,-9.555301,-2.381567
2.505488,-0.343131,-9.562933,-2.347599
2.538833,-0.312454,-9.547968,-2.315725
2.572176,-0.323977,-9.532705,-2.323207
2.605495,-0.318590,-9.534500,-2.374385
2.638826,-0.350913,-9.526569,-2.366753
2.672161,-0.347621,-9.535847,-2.341463
2.705508,-0.340587,-9.551859,-2.314976
2.738830,-0.350613,-9.570564,-2.458634
2.772177,-0.317692,-9.580291,-2.429304
2.805481,-0.302129,-9.546472,-2.362264
2.838825,-0.279383,-9.538092,-2.352387
2.872165,-0.297789,-9.530909,-2.390546
2.905470,-0.331160,-9.509959,-2.329192
2.938920,-0.301979,-9.539738,-2.320812
2.972232,-0.332357,-9.543479,-2.408054
3.005547,-0.335200,-9.547519,-2.406109
3.038646,-0.347172,-9.512652,-2.355230
3.071650,-0.323528,-9.507714,-2.373636
3.104636,-0.340887,-9.510109,-2.336226
3.138859,-0.329214,-9.507265,-2.243597
3.172173,-0.309462,-9.547519,-2.221300
3.205483,-0.290307,-9.565177,-2.278164
3.238835,-0.351511,-9.552458,-2.410598
3.272165,-0.309761,-9.546322,-2.412993
3.305469,-0.306618,-9.510557,-2.333382
3.338916,-0.293300,-9.519835,-2.216811
3.372175,-0.279683,-9.512503,-2.237611
3.405563,-0.308863,-9.503973,-2.316473
3.438898,-0.314400,-9.536446,-2.344157
3.472165,-0.295844,-9.539888,-2.367351
3.505574,-0.312604,-9.554253,-2.421522
3.539096,-0.277139,-9.555151,-2.344606
3.572268,-0.295694,-9.503674,-2.323506
3.605731,-0.285369,-9.503375,-2.303454
3.638891,-0.281329,-9.520883,-2.369895
3.672242,-0.263372,-9.515346,-2.302406
3.705704,-0.266065,-9.507415,-2.370344
3.738836,-0.272649,-9.536296,-2.343259
3.772222,-0.251999,-9.523127,-2.328893
3.805562,-0.269208,-9.526719,-2.357625
3.838829,-0.286117,-9.558593,-2.408803
3.872165,-0.317991,-9.502327,-2.346551
3.905043,-0.324276,-9.530759,-2.407755
3.938835,-0.273547,-9.563082,-2.433344
3.972223,-0.300184,-9.536146,-2.315725
4.005617,-0.381290,-9.392040,-2.437684
4.038853,-0.288961,-9.568769,-2.380520
4.072180,-0.331309,-9.525222,-2.406708
4.105557,-0.383685,-9.632516,-2.094852
4.138862,-0.271303,-9.552906,-2.398776
4.172160,-0.324127,-9.584481,-2.399824
4.205506,-0.338492,-9.566674,-2.377377
4.238917,-0.290906,-9.590616,-2.428555
4.272221,-0.298687,-9.563830,-2.371541
4.305503,-0.323528,-9.520284,-2.257962
4.338892,-0.352858,-9.535249,-2.175509
4.372182,-0.367224,-9.552009,-2.243447
4.405553,-0.383535,-9.538391,-2.219654
4.438901,-0.370516,-9.523576,-2.088567
4.472245,-0.362286,-9.558294,-2.167877
4.505544,-0.332507,-9.592861,-2.225340
4.538831,-0.373359,-9.565476,-2.185835
4.572193,-0.329663,-9.559790,-2.204839
4.605561,-0.343431,-9.563830,-2.247936
4.638858,-0.347321,-9.582536,-2.216960
4.672151,-0.352409,-9.567123,-2.160695
4.705548,-0.340138,-9.566374,-2.156953
4.738947,-0.355103,-9.567871,-2.167428
4.772156,-0.340138,-9.563681,-2.215763
4.805486,-0.360191,-9.561586,-2.222347
4.838863,-0.366625,-9.599894,-2.129419
4.872229,-0.366775,-9.613512,-2.021227
4.905561,-0.424387,-9.548716,-2.157103
4.938831,-0.335350,-9.591065,-2.216811
4.972187,-0.366625,-9.580291,-2.049211
5.005565,-0.270255,-9.767494,-2.028859
5.038829,-0.491727,-9.412092,-2.276817
5.072212,-0.509684,-9.352235,-2.452947
5.105514,-0.448181,-9.392190,-2.518491
5.138828,-0.395806,-9.687585,-2.504125
5.172225,-0.515221,-9.522080,-2.473299
5.205548,-0.390867,-9.594956,-2.325302
5.238845,-0.293899,-9.811190,-2.198255
5.272227,-0.296443,-9.769440,-2.266941
5.305544,-0.388473,-9.501729,-2.288789
5.338827,-0.518214,-9.379171,-2.223395
5.372157,-0.501005,-9.542282,-2.304950
5.405552,-0.513575,-9.552906,-2.098593
5.438829,-0.499059,-9.415983,-2.012249
5.472218,-0.403737,-9.509809,-2.086771
5.505514,-0.315597,-9.714970,-1.991448
5.538854,-0.274445,-9.739810,-1.872632
5.572235,-0.349716,-9.600643,-1.966009
5.605544,-0.363932,-9.661547,-1.926503
5.638836,-0.468981,-9.536745,-2.000577
5.672222,-0.518513,-9.481826,-2.135704
5.705582,-0.585852,-9.502477,-2.187032
5.738830,-0.651396,-9.414786,-1.970648
5.772175,-0.577173,-9.481976,-1.886249
5.805606,-0.449228,-9.617702,-1.914382
5.838847,-0.329065,-9.708685,-1.981422
5.872220,-0.196930,-9.779915,-2.107571
5.905502,-0.070482,-9.803708,-2.283102
5.938824,-0.335799,-9.533902,-2.246141
5.972224,-0.584805,-9.259606,-1.918423
6.005508,-0.770362,-9.232072,-1.648317
6.038862,-0.630446,-9.520284,-2.070460
6.072242,-0.605306,-9.693272,-2.080037
6.105597,-0.543503,-9.732328,-1.963315
6.138829,-0.377998,-9.979538,-2.279212
6.172227,-0.359293,-9.899779,-2.339667
6.205622,-0.515969,-9.585080,-2.380969
6.238830,-0.480653,-9.473296,-2.354781
6.272234,-0.571935,-9.454741,-2.080037
6.305545,-0.615182,-9.386803,-1.956432
6.338869,-0.567596,-9.482125,-1.918273
6.372226,-0.437257,-9.519686,-2.130766
6.405546,-0.393411,-9.511156,-2.114455
6.438862,-0.165056,-9.685640,-2.123882
6.472232,0.027235,-9.795627,-2.156505
6.505548,0.021100,-9.822563,-2.178951
6.538868,-0.146500,-9.456985,-1.968553
6.572244,-0.275193,-9.432594,-1.762345
6.605618,-0.228505,-9.627878,-1.869340
6.638855,-0.239429,-9.694918,-1.906451
6.672239,-0.297191,-9.570864,-1.996387
6.705657,-0.295844,-9.668281,-2.059386
6.738894,-0.374556,-9.652718,-2.158749
6.772177,-0.352259,-9.760461,-2.071358
6.805663,-0.425136,-9.638951,-2.144084
6.838879,-0.486639,-9.423914,-2.130018
6.872219,-0.537817,-9.377226,-2.087519
6.905476,-0.558019,-9.397427,-1.994591
6.938622,-0.473770,-9.490356,-1.981273
6.972045,-0.362735,-9.644039,-2.081833
7.005469,-0.327269,-9.624136,-2.091111
7.038516,-0.248856,-9.648379,-2.022125
7.072222,-0.241673,-9.730832,-2.132562
7.105552,-0.283573,-9.654664,-2.131215
7.138878,-0.395955,-9.546023,-2.038885
7.172171,-0.408376,-9.621144,-2.098144
7.205568,-0.347321,-9.587923,-2.266043
7.238798,-0.390568,-9.622939,-2.053401
7.272163,-0.425884,-9.558443,-2.184039
7.305539,-0.414212,-9.511006,-2.332185
7.338841,-0.448779,-9.506816,-2.080785
7.372207,-0.481850,-9.512204,-2.137201
7.405500,-0.502501,-9.541534,-2.047415
7.438836,-0.358096,-9.638203,-2.186433
7.472214,-0.268759,-9.697462,-2.250480
7.505476,-0.265018,-9.673519,-2.162939
7.538819,-0.223267,-9.617403,-2.129419
7.572312,-0.261726,-9.603635,-2.092757
7.605558,-0.259032,-9.592861,-2.061481
7.638867,-0.331609,-9.543329,-2.134806
7.672185,-0.389072,-9.550063,-2.123733
7.705195,-0.363932,-9.592861,-2.254670
7.738866,-0.343131,-9.623388,-2.359121
7.772161,-0.411219,-9.572061,-2.227735
7.805621,-0.454017,-9.570564,-2.103531
7.838825,-0.538715,-9.576101,-2.004318
7.872155,-0.431271,-9.608723,-2.220552
7.905694,-0.337594,-9.615308,-2.421971
7.938889,-0.307816,-9.592263,-2.211423
7.972329,-0.302428,-9.588521,-1.992645
8.005521,-0.262025,-9.656010,-1.918722
8.038831,-0.303177,-9.650623,-1.996087
8.072249,-0.396105,-9.531807,-2.058488
8.105577,-0.420497,-9.379321,-2.266941
8.138906,-0.341635,-9.569068,-2.216960
8.172168,-0.288961,-9.738613,-2.005066
8.205500,-0.251400,-9.755673,-2.032750
8.238850,-0.354803,-9.615607,-2.135704
8.272234,-0.465240,-9.504422,-2.043823
8.305472,-0.532729,-9.430947,-2.017037
8.338830,-0.431421,-9.557096,-2.127773
8.372153,-0.414661,-9.540935,-2.200200
8.405776,-0.378148,-9.569816,-2.059087
8.438825,-0.247958,-9.686538,-2.111612
8.472232,-0.210697,-9.767195,-2.138697
8.505490,-0.275792,-9.697013,-1.920967
8.538199,-0.354504,-9.554253,-2.091559
8.572046,-0.328017,-9.543030,-2.122536
8.605251,-0.423639,-9.487363,-1.916028
8.638844,-0.401193,-9.471650,-1.871584
8.672190,-0.380392,-9.468957,-2.026764
8.705839,-0.312604,-9.577448,-2.095001
8.738823,-0.317842,-9.686538,-1.962118
8.772205,-0.320984,-9.737416,-1.998332
8.805558,-0.388024,-9.706440,-2.069562
8.838824,-0.434114,-9.550662,-2.167578
8.872179,-0.384882,-9.542880,-2.289238
8.905593,-0.408226,-9.491403,-2.095749
8.939090,-0.365877,-9.550811,-1.828786
8.972226,-0.282227,-9.680702,-1.887446
9.005548,-0.273547,-9.757917,-1.989054
9.038823,-0.360789,-9.621742,-2.086771
9.072276,-0.411069,-9.600194,-2.109068
9.105549,-0.428877,-9.599745,-2.017337
9.138842,-0.435611,-9.633265,-2.061332
9.172197,-0.442494,-9.524175,-2.085873
9.205618,-0.503848,-9.486465,-2.124481
9.238834,-0.471974,-9.430648,-2.021527
9.272192,-0.516268,-9.500082,-2.123134
9.305551,-0.467485,-9.541983,-2.035593
9.338851,-0.402839,-9.687435,-1.952392
9.372161,-0.376202,-9.754027,-2.161742
9.405585,-0.374407,-9.622041,-2.002223
9.438748,-0.285968,-9.712575,-2.093654
9.472163,-0.309462,-9.760012,-2.212172
9.505547,-0.474368,-9.478833,-1.866796
9.538871,-0.447732,-9.522978,-2.069861
9.572174,-0.349566,-9.744150,-2.373786
9.605516,-0.355701,-9.633863,-2.250181
9.638831,-0.365428,-9.600792,-2.186283
9.672173,-0.236137,-9.594657,-2.151417
9.705498,-0.266364,-9.655113,-2.095749
9.738834,-0.360490,-9.661996,-1.723139
9.772165,-0.378148,-9.622041,-1.771473
9.805484,-0.607700,-9.669478,-2.102633
9.838828,-0.687759,-9.375280,-1.814421
9.872160,-0.617128,-9.330687,-1.977232
9.905530,-0.309761,-9.687136,-2.224592
9.938811,-0.307816,-9.659901,-2.024968
9.972182,-0.289709,-9.562334,-1.889691
10.005500,-0.160118,-9.727091,-1.938175
10.038887,-0.221023,-9.848302,-1.894779
10.072269,-0.299136,-9.736518,-1.971396
10.105494,-0.450425,-9.498436,-2.022724
10.138813,-0.562059,-9.445612,-2.080037
10.172250,-0.593634,-9.456087,-2.016289
10.205533,-0.622664,-9.487812,-1.940121
10.238815,-0.503997,-9.603336,-2.025567
10.272243,-0.435910,-9.620994,-2.127773
10.305486,-0.489332,-9.540336,-2.089614
10.338825,-0.606204,-9.434240,-1.976334
10.372160,-0.679379,-9.473296,-1.809183
10.405592,-0.532579,-9.608274,-2.040082
10.438816,-0.424836,-9.686089,-2.140792
10.472188,-0.357048,-9.689530,-2.173713
10.505218,-0.252448,-9.727540,-2.124032
10.538817,-0.198427,-9.777820,-2.067766
10.572189,-0.212493,-9.724697,-2.040082
10.605564,-0.243020,-9.602738,-1.920518
10.638883,-0.316944,-9.560389,-1.837466
10.672222,-0.382637,-9.483921,-1.899717
10.705548,-0.503100,-9.431247,-1.964213
10.738821,-0.534225,-9.461924,-1.951344
10.772256,-0.537218,-9.508462,-1.985762
10.805533,-0.469430,-9.657357,-2.081833
10.838910,-0.406879,-9.712426,-2.089016
10.872200,-0.345974,-9.714521,-2.263200
10.905575,-0.291355,-9.656310,-2.240903
10.938884,-0.347770,-9.622490,-2.119393
10.972443,-0.307965,-9.547370,-2.167877
11.005543,-0.335350,-9.583733,-2.139445
11.038896,-0.334751,-9.515945,-2.196758
11.072343,-0.319488,-9.533752,-2.113258
11.105553,-0.303027,-9.554403,-2.066868
11.138948,-0.255441,-9.569517,-2.115802
11.172328,-0.190346,-9.650025,-2.045918
11.205560,-0.145154,-9.625334,-2.039184
11.238884,-0.221771,-9.555600,-1.980973
11.272279,-0.313801,-9.495294,-1.866796
11.305541,-0.321882,-9.595555,-2.071657
11.338869,-0.280431,-9.611267,-2.295972
11.372311,-0.306469,-9.568020,-2.227884
11.405551,-0.281778,-9.540187,-2.193466
11.438923,-0.293749,-9.541085,-2.240305
11.472195,-0.359442,-9.391741,-2.177155
11.505500,-0.313801,-9.368247,-2.133459
11.538869,-0.306469,-9.575353,-2.192120
11.572229,-0.317692,-9.497539,-2.193915
11.605439,-0.188849,-9.618300,-2.456389
11.638817,-0.112531,-9.741905,-2.503526
11.672202,-0.091581,-9.729784,-2.297767
11.705522,-0.073175,-9.597949,-2.390247
11.738878,0.015563,-9.641495,-2.407605
11.772240,-0.000748,-9.687884,-2.320064
11.805482,-0.117470,-9.608424,-2.163089
11.838880,-0.260379,-9.527916,-2.214117
11.872309,-0.413912,-9.409997,-2.321411
11.905488,-0.502052,-9.221747,-2.419876
11.938885,-0.548741,-9.330387,-2.447560
11.972334,-0.478109,-9.408950,-2.464769
12.005487,-0.334602,-9.528964,-2.567125
12.038869,-0.209500,-9.639550,-2.573859
12.072440,-0.173885,-9.697013,-2.548719
12.105561,-0.155329,-9.705093,-2.514899
12.138898,-0.252298,-9.644039,-2.469558
12.172182,-0.345974,-9.507565,-2.454743
12.205487,-0.407478,-9.483322,-2.519089
12.238836,-0.389970,-9.524474,-2.605733
12.272208,-0.429775,-9.540336,-2.543182
12.305545,-0.406879,-9.520284,-2.589422
12.338863,-0.383535,-9.518339,-2.642096
12.372236,-0.401342,-9.443817,-2.549168
12.405407,-0.340887,-9.348494,-2.363760
12.438817,-0.242422,-9.496491,-2.291333
12.472166,-0.231498,-9.603336,-2.212471
12.505531,-0.377848,-9.565327,-1.992945
12.538879,-0.326371,-9.625184,-2.244794
12.571558,-0.272500,-9.605581,-2.637457
12.605494,-0.338343,-9.236561,-2.440228
12.638884,-0.359742,-9.302105,-2.150968
12.672227,-0.193788,-9.448156,-2.387853
12.705485,-0.169994,-9.589868,-2.456988
12.738867,-0.325473,-9.444565,-2.206785
12.772162,-0.407927,-9.424363,-2.158450
12.805528,-0.374706,-9.574006,-2.362862
12.838894,-0.344478,-9.713473,-2.261404
12.872190,-0.250053,-9.697162,-2.451900
12.905516,-0.226260,-9.640747,-2.670079
12.938514,-0.232395,-9.594956,-2.601393
12.971802,-0.113729,-9.478235,-2.417183
13.005124,-0.102505,-9.633115,-2.531510
13.038461,-0.203215,-9.516244,-2.241502
13.071798,-0.393711,-9.409249,-2.002223
13.105111,-0.424537,-9.554403,-2.358522
13.138458,-0.364830,-9.451000,-2.742207
13.172254,-0.347621,-9.405209,-2.618901
13.205533,-0.272201,-9.544526,-2.334879
13.238962,-0.132434,-9.634911,-2.504125
13.272170,-0.149493,-9.604234,-2.446064
13.305521,-0.260828,-9.380667,-2.272927
13.338966,-0.301979,-9.374532,-2.172516
13.372162,-0.200671,-9.605880,-2.379622
13.405497,-0.155629,-9.613063,-2.518491
13.438945,-0.129740,-9.630571,-2.569070
13.472164,-0.163560,-9.608723,-2.565778
13.505683,-0.185857,-9.605132,-2.387853
13.538878,-0.176878,-9.643440,-2.321710
13.572308,-0.223417,-9.534949,-2.385758
13.605553,-0.267562,-9.445313,-2.322459
13.639015,-0.264269,-9.451449,-2.367651
13.672167,-0.226559,-9.522230,-2.589272
13.705494,-0.212643,-9.477187,-2.464919
13.739009,-0.173586,-9.410446,-2.414489
13.772182,-0.227008,-9.464467,-2.262901
13.805353,-0.268759,-9.439926,-2.089764
13.838927,-0.285070,-9.524175,-2.148424
13.872151,-0.229253,-9.689530,-2.402069
13.905518,-0.206956,-9.665588,-2.564282
13.938930,-0.167450,-9.597201,-2.609324
13.972227,-0.202617,-9.611267,-2.492303
14.005517,-0.205310,-9.517591,-2.404762
14.038927,-0.240177,-9.452346,-2.310487
14.072265,-0.262324,-9.450850,-2.304950
14.105522,-0.283723,-9.390693,-2.373636
14.138819,-0.258583,-9.451000,-2.320064
14.172294,-0.189448,-9.451149,-2.282205
14.205536,-0.203814,-9.526719,-2.310637
14.239172,-0.249455,-9.430349,-2.302257
14.272195,-0.273697,-9.457734,-2.177455
14.304967,-0.189598,-9.600942,-2.369147
14.338886,-0.095323,-9.667683,-2.521633
14.372229,-0.105947,-9.626531,-2.528068
14.405575,-0.124204,-9.570415,-2.373187
14.438829,-0.114926,-9.714670,-2.382765
14.472208,-0.188700,-9.552906,-2.345952
14.505700,-0.274146,-9.475541,-2.332634
14.538839,-0.329364,-9.497539,-2.344755
14.572246,-0.329963,-9.517890,-2.347150
14.605551,-0.316495,-9.504123,-2.444268
14.638921,-0.309013,-9.515346,-2.454144
14.672275,-0.336248,-9.431396,-2.399974
14.705525,-0.290906,-9.439327,-2.264846
14.738903,-0.263970,-9.563381,-2.193317
14.772203,-0.213391,-9.549614,-2.377377
14.804778,-0.235688,-9.477935,-2.367651
14.838521,-0.238531,-9.511006,-2.330839
14.872220,-0.263372,-9.587474,-2.198853
14.905518,-0.257236,-9.688483,-2.171170
14.938648,-0.307217,-9.631768,-2.449056
14.972132,-0.385630,-9.492002,-2.372739
15.005520,-0.375155,-9.504721,-2.334131
15.038916,-0.324127,-9.526270,-2.329192
15.072248,-0.318889,-9.530759,-2.301509
15.105556,-0.334302,-9.512353,-2.325002
15.138888,-0.353606,-9.500232,-2.301808
15.172168,-0.357647,-9.497090,-2.272179
15.205590,-0.367972,-9.533602,-2.259608
15.238818,-0.345226,-9.446361,-2.295224
15.272185,-0.341186,-9.529412,-2.296121
15.304599,-0.342533,-9.493349,-2.279062
15.338907,-0.286566,-9.508313,-2.302556
15.372278,-0.219676,-9.576101,-2.369297
15.405534,-0.196631,-9.572510,-2.396532
15.438887,-0.199624,-9.632367,-2.200948
15.472271,-0.167301,-9.648528,-2.332784
15.505526,-0.148745,-9.682797,-2.352387
15.538849,-0.314400,-9.540037,-2.279212
15.572297,-0.324576,-9.480779,-2.303604
15.605509,-0.334602,-9.475242,-2.401919
15.638834,-0.364081,-9.522828,-2.216362
15.672191,-0.387426,-9.497539,-2.252725
15.705499,-0.364530,-9.488410,-2.353734
15.738859,-0.270405,-9.554852,-2.523130
15.772210,-0.276391,-9.564130,-2.500833
15.805582,-0.339091,-9.508014,-2.304352
15.839088,-0.356300,-9.551260,-2.155307
15.872233,-0.317542,-9.593011,-2.433643
15.905550,-0.283274,-9.623837,-2.575505
15.939002,-0.338492,-9.533902,-2.436337
15.972220,-0.295694,-9.487662,-2.352237
16.005472,-0.190047,-9.615607,-2.289836
16.038846,-0.139467,-9.538990,-2.169224
16.072177,-0.244367,-9.416881,-2.102483
16.105563,-0.369618,-9.473745,-1.853627
16.138814,-0.350015,-9.514149,-2.261255
16.172160,-0.296592,-9.624585,-2.532857
16.205662,-0.380692,-9.566823,-2.363012
16.238893,-0.521955,-9.502028,-2.030804
16.272214,-0.484694,-9.490505,-2.224293
16.305521,-0.422891,-9.562633,-2.504275
16.338853,-0.342084,-9.646134,-2.333981
16.372293,-0.229702,-9.667084,-2.417931
16.405529,-0.169396,-9.692523,-2.520137
16.438835,-0.211745,-9.385306,-2.154410
16.472160,-0.235388,-9.284896,-2.065222
16.505574,-0.225063,-9.455938,-2.018833
16.538805,-0.112232,-9.524025,-2.049809
16.572144,-0.109838,-9.603935,-2.017486
16.605550,-0.040404,-9.545125,-2.076146
16.638878,0.051328,-9.721554,-2.190623
16.672158,0.151738,-9.758965,-2.481828
16.705554,0.156975,-9.590916,-2.568322
16.738826,0.052674,-9.542132,-2.415237
16.772147,0.022746,-9.597350,-2.273525
16.805507,-0.049233,-9.539738,-2.158600
16.838991,-0.129740,-9.632217,-2.098144
16.872177,-0.056864,-9.665288,-2.402667
16.905659,-0.048035,-9.695067,-2.618602
16.938857,-0.164009,-9.506966,-2.440228
16.972420,-0.267412,-9.463121,-2.234468
17.005488,-0.135726,-9.616056,-2.273076
17.038863,-0.014066,-9.604683,-2.267091
17.072475,0.106246,-9.696863,-2.277117
17.105484,0.064346,-9.600942,-2.162191
17.138861,-0.013468,-9.557396,-2.161443
17.171822,-0.161914,-9.494246,-2.212920
17.205547,-0.294797,-9.401318,-2.099939
17.238876,-0.384882,-9.375879,-2.070759
17.272153,-0.341186,-9.483023,-2.181495
17.305495,-0.296592,-9.587773,-2.209179
17.338953,-0.350613,-9.582985,-2.085274
17.372157,-0.309611,-9.638652,-2.103381
17.405494,-0.247659,-9.646284,-2.310786
17.439167,-0.215187,-9.687136,-2.319915
17.472165,-0.224464,-9.590018,-2.148873
17.505593,-0.212493,-9.560538,-2.300760
17.538867,-0.230300,-9.571612,-2.140792
17.572387,-0.245564,-9.429002,-1.983068
17.605531,-0.274445,-9.429002,-1.870537
17.638951,-0.311108,-9.429301,-1.702787
17.672260,-0.265766,-9.567422,-1.814720
17.705495,-0.184510,-9.679055,-2.109666
17.738872,-0.122258,-9.687435,-2.126127
17.772286,-0.200970,-9.548716,-1.964064
17.805525,-0.152037,-9.610369,-2.307644
17.838916,-0.080957,-9.650773,-2.442173
17.872214,-0.045342,-9.598548,-2.286694
17.905527,-0.054171,-9.577448,-2.128372
17.938943,-0.123306,-9.581638,-2.084526
17.972220,-0.139018,-9.568320,-2.155906
18.005529,-0.195434,-9.593909,-2.179849
18.038879,-0.204113,-9.447558,-2.274124
18.072213,-0.191693,-9.494097,-2.209179
18.105505,-0.196032,-9.531807,-2.169823
18.138487,-0.118667,-9.598697,-2.252875
18.172252,-0.151588,-9.587324,-2.361515
18.205521,-0.214887,-9.579693,-2.155756
18.238804,-0.291056,-9.605431,-2.177604
18.272165,-0.315148,-9.625783,-2.570866
18.305488,-0.379195,-9.601241,-2.475992
18.338933,-0.425734,-9.469406,-2.317071
18.372156,-0.306618,-9.575054,-2.497092
18.405652,-0.282077,-9.555151,-2.365107
18.438865,-0.224764,-9.576550,-2.198255
18.472380,-0.083650,-9.693870,-2.375881
18.505564,-0.037710,-9.681599,-2.317371
18.539144,-0.055817,-9.654065,-2.231027
18.572155,-0.186156,-9.540636,-2.102034
18.605497,-0.278037,-9.448456,-2.140493
18.638882,-0.313652,-9.459529,-2.182243
18.672145,-0.363483,-9.485567,-2.225490
18.705499,-0.319937,-9.445313,-2.277865
18.738983,-0.274146,-9.530161,-2.333233
18.772146,-0.224165,-9.566524,-2.397579
18.805494,-0.239878,-9.488111,-2.305399
18.839104,-0.236286,-9.493199,-2.134657
18.872147,-0.249604,-9.616954,-1.955833
18.905498,-0.235688,-9.779915,-1.947902
18.939001,-0.257536,-9.799518,-2.084526
18.972146,-0.320984,-9.796824,-2.245392
19.005497,-0.387276,-9.666186,-2.435738
19.039032,-0.469430,-9.537493,-2.394138
19.072215,-0.467036,-9.469256,-2.184937
19.105631,-0.411368,-9.513401,-2.220252
19.138939,-0.345675,-9.488710,-2.225340
19.172144,-0.270106,-9.437382,-2.102783
19.205493,-0.177776,-9.518189,-2.057591
19.238896,-0.127047,-9.606928,-2.081833
19.272172,-0.147099,-9.630272,-1.927102
19.305495,-0.213989,-9.524624,-2.045769
19.338956,-0.211296,-9.547220,-2.185685
19.371794,-0.248407,-9.554702,-2.129120
19.405563,-0.212194,-9.634462,-2.184488
19.438880,-0.146351,-9.674566,-2.324404
19.472164,-0.171491,-9.633564,-2.150968
19.505500,-0.212194,-9.549016,-2.044721
19.538848,-0.260229,-9.500531,-2.041279
19.572196,-0.276540,-9.529562,-1.986510
19.605488,-0.302129,-9.500531,-2.157851
19.638862,-0.264269,-9.618600,-2.166082
19.672163,-0.295545,-9.532555,-2.291482
19.705492,-0.247509,-9.587474,-2.278912
19.738959,-0.168947,-9.625334,-2.256017
19.772279,-0.074522,-9.671873,-2.217409
19.805489,-0.088738,-9.615906,-2.087519
19.838823,-0.103403,-9.584930,-2.058788
19.872190,-0.101458,-9.570115,-2.043225
19.905533,-0.140365,-9.549016,-2.045021
19.939018,-0.214438,-9.494246,-2.134806
19.972153,-0.235837,-9.508612,-2.166231
20.005492,-0.268609,-9.545125,-2.192868
20.038887,-0.217581,-9.562334,-2.156056
20.072157,-0.162213,-9.587923,-2.208730
20.105494,-0.126149,-9.653915,-2.122835
20.138947,-0.165804,-9.612464,-2.076296
20.172150,-0.150690,-9.606778,-2.082132
20.205492,-0.168049,-9.640896,-2.098593
20.238925,-0.157574,-9.599894,-2.081683
20.272188,-0.183313,-9.557396,-2.087968
20.305531,-0.240626,-9.546771,-2.128521
20.338979,-0.244966,-9.508313,-2.125678
20.372199,-0.261576,-9.537344,-2.089464
20.405491,-0.246612,-9.605880,-2.132711
20.438849,-0.200522,-9.658554,-2.156205
20.472197,-0.204712,-9.685340,-2.249133
20.505499,-0.252448,-9.620545,-2.206036
20.538916,-0.317542,-9.581788,-2.174312
20.572174,-0.342233,-9.609471,-2.124182
20.605494,-0.345077,-9.576251,-2.066120
20.638827,-0.389820,-9.539738,-2.035593
20.672184,-0.370217,-9.565028,-2.085873
20.705508,-0.338492,-9.582386,-2.096797
20.738857,-0.290158,-9.600643,-2.140493
20.772152,-0.269956,-9.605431,-2.122536
20.805487,-0.280730,-9.618899,-2.067766
20.838969,-0.322929,-9.580740,-1.984265
20.872204,-0.336697,-9.531208,-2.103232
20.905521,-0.346872,-9.498885,-2.146778
20.938828,-0.326371,-9.511755,-2.154709
20.972221,-0.272051,-9.570564,-2.103980
21.005608,-0.214887,-9.615756,-2.050258
21.038941,-0.166253,-9.595704,-2.172217
21.072294,-0.177925,-9.617702,-2.207383
21.105498,-0.211745,-9.528664,-2.051006
21.138831,-0.214738,-9.542282,-2.064923
21.172328,-0.136624,-9.573408,-2.148573
21.205494,-0.071230,-9.657956,-2.314228
21.238903,-0.029180,-9.683395,-2.262901
21.272278,-0.085895,-9.598548,-2.161143
21.305490,-0.191244,-9.547519,-1.997584
21.338850,-0.227008,-9.552158,-2.065821
21.372231,-0.233892,-9.578196,-2.111612
21.405523,-0.269208,-9.571911,-2.267540
21.438970,-0.258882,-9.620395,-2.313779
21.472157,-0.248856,-9.578046,-2.348496
21.505490,-0.250353,-9.658105,-2.325601
21.538853,-0.245115,-9.586277,-2.310038
21.572176,-0.224015,-9.561436,-2.118346
21.605528,-0.212942,-9.556199,-2.033797
21.638827,-0.213540,-9.585229,-2.070909
21.672160,-0.191094,-9.576849,-2.237910
21.705523,-0.284322,-9.525222,-2.162041
21.738900,-0.325922,-9.522828,-2.121937
21.772257,-0.290607,-9.530011,-2.302855
21.805491,-0.295395,-9.538541,-2.237761
21.838874,-0.261127,-9.583883,-2.129718
21.872230,-0.204562,-9.613362,-2.238509
21.905496,-0.153833,-9.606928,-2.165184
21.938846,-0.190944,-9.657208,-2.111612
21.972187,-0.228654,-9.623538,-2.184338
22.005491,-0.328466,-9.539888,-2.247188
22.038822,-0.374556,-9.426757,-2.288041
22.072251,-0.405981,-9.423016,-2.249283
22.105499,-0.276839,-9.530759,-2.210376
22.138892,-0.163111,-9.605132,-2.257962
22.172179,-0.108341,-9.714970,-2.168027
22.205577,-0.143358,-9.629524,-2.115053
22.238840,-0.161764,-9.593310,-2.081533
22.272032,-0.234042,-9.614110,-2.019282
22.305578,-0.211296,-9.562783,-2.184937
22.338858,-0.213241,-9.570864,-2.337124
22.372062,-0.260229,-9.528814,-2.256167
22.405501,-0.310060,-9.436035,-2.226687
22.438820,-0.311257,-9.525821,-2.247936
22.471857,-0.305870,-9.549016,-2.213518
22.505493,-0.354354,-9.542731,-2.133160
22.538939,-0.321134,-9.599296,-2.274124
22.572178,-0.215187,-9.637455,-2.403864
22.605554,-0.121061,-9.715718,-2.319765
22.638876,-0.110287,-9.722153,-2.268886
22.672202,-0.118068,-9.739362,-2.154260
22.705497,-0.294198,-9.649426,-2.139744
22.738884,-0.393561,-9.654065,-2.167728
22.772264,-0.452071,-9.632965,-2.360617
22.805498,-0.574330,-9.468807,-2.431249
22.838856,-0.605605,-9.348345,-2.245243
22.872308,-0.559216,-9.341311,-2.152913
22.905496,-0.335350,-9.518040,-2.014643
22.938891,-0.197529,-9.603336,-1.937577
22.972339,-0.120313,-9.673519,-1.965859
23.005510,-0.084698,-9.672172,-1.937876
23.038811,-0.222519,-9.631619,-1.986959
23.072349,-0.388323,-9.544526,-1.895826
23.105495,-0.449078,-9.406406,-1.985463
23.138934,-0.357048,-9.483921,-2.292231
23.172159,-0.169545,-9.561735,-2.286395
23.205497,0.042349,-9.631020,-2.096498
23.238923,0.201419,-9.708834,-2.045170
23.272155,0.130339,-9.761808,-1.783894
23.305494,0.025140,-9.722901,-1.603275
23.338926,-0.043995,-9.682348,-1.845846
23.372160,-0.284322,-9.598996,-1.950147
23.405501,-0.465539,-9.382463,-1.852580
23.438919,-0.474518,-9.444266,-1.886549
23.472249,-0.343131,-9.692523,-2.239856
23.505515,-0.289858,-9.652868,-2.315725
23.538863,-0.255590,-9.567422,-2.245093
23.572362,-0.197678,-9.562783,-1.877570
23.605609,-0.147997,-9.659153,-1.881461
23.638855,-0.107294,-9.594657,-2.095450
23.672270,-0.253196,-9.372587,-2.102483
23.705368,-0.419150,-9.429002,-1.781649
23.738855,-0.360340,-9.645386,-1.942365
23.772224,-0.293450,-9.818523,-2.058039
23.805589,-0.307217,-9.676811,-2.232224
23.838866,-0.254543,-9.625184,-2.261404
23.872238,-0.163111,-9.665438,-2.324404
23.905538,-0.051477,-9.533902,-2.139744
23.938826,-0.074672,-9.394285,-1.970498
23.972185,-0.058211,-9.487662,-1.708773
24.005558,-0.131087,-9.597799,-1.836119
24.038826,-0.240776,-9.597350,-1.766685
24.072162,-0.273996,-9.629973,-2.179998
24.105509,-0.150092,-9.630571,-2.394736
24.138894,-0.066591,-9.719758,-2.326798
24.172318,0.100261,-9.786649,-2.158899
24.205493,0.390119,-9.812238,-2.269635
24.238814,0.510881,-9.716616,-2.234768
24.272215,0.395357,-9.543778,-1.709371
24.305364,0.257835,-9.582835,-1.521869
24.338617,0.058061,-9.605281,-1.856770
24.372166,-0.132584,-9.503375,-1.919171
24.405488,-0.259182,-9.449802,-2.064624
24.438864,-0.177028,-9.546173,-2.311984
24.472175,-0.071529,-9.724248,-2.390247
24.505296,0.018705,-9.744300,-2.180597
24.538822,-0.028133,-9.649127,-2.017337
24.571391,-0.026038,-9.617552,-1.841356
24.605523,-0.060905,-9.647930,-1.996686
24.638819,-0.197229,-9.561286,-2.084826
24.672233,-0.173735,-9.456237,-2.038287
24.705559,-0.293899,-9.695815,-2.320364
24.738853,-0.252897,-9.538990,-2.185685
24.772211,-0.329813,-9.522080,-2.288490
24.805489,-0.364381,-9.509660,-2.236414
24.838759,-0.328466,-9.442620,-1.988755
24.872154,-0.321433,-9.692972,-1.875625
24.905517,-0.184809,-9.566374,-2.110564
24.938878,-0.172538,-9.550961,-2.142288
24.972158,-0.066441,-9.595106,-2.096498
25.005489,-0.084249,-9.503674,-1.922463
25.038886,-0.020052,-9.677709,-1.858416
25.072173,0.111783,-9.823162,-2.031852
25.105547,0.356449,-9.966071,-2.428555
25.138825,0.358245,-9.913396,-2.385159
25.172251,0.121510,-9.682497,-1.995938
25.205548,-0.114327,-9.363458,-1.856620
25.238899,-0.159370,-9.338019,-1.949548
25.272190,-0.173586,-9.383211,-1.926204
25.305545,-0.222968,-9.443667,-2.031553
25.338864,-0.198875,-9.520135,-2.040831
25.372083,-0.178674,-9.464168,-2.157702
25.405540,-0.167899,-9.607676,-2.124182
25.438934,-0.071978,-9.690428,-2.234020
25.472220,-0.048933,-9.834534,-2.143336
25.505523,-0.164458,-9.850097,-1.981722
25.538884,-0.188849,-9.691476,-2.204839
25.572148,-0.154581,-9.628027,-2.470306
25.605558,-0.179123,-9.560389,-2.187630
25.638827,-0.219227,-9.524923,-1.988455
25.671811,-0.236137,-9.465665,-1.878468
25.705494,-0.201569,-9.424962,-2.115053
25.738913,-0.180320,-9.536895,-2.006562
25.772147,-0.171790,-9.664390,-1.969451
25.805487,-0.134080,-9.765250,-2.048462
25.838904,-0.203514,-9.652419,-2.007011
25.872150,-0.246911,-9.517441,-1.931890
25.905504,-0.238082,-9.522379,-1.917076
25.938832,-0.235538,-9.560089,-1.874428
25.972131,-0.223866,-9.554553,-2.037389
26.005494,-0.129292,-9.546472,-2.013895
26.038943,-0.106995,-9.625932,-2.026315
26.072225,-0.128394,-9.693720,-1.934434
26.105544,-0.160567,-9.633564,-1.777459
26.138829,-0.182864,-9.714222,-1.933537
26.172203,-0.252448,-9.720058,-1.963016
26.205546,-0.304523,-9.471950,-2.074650
26.238828,-0.288811,-9.528215,-2.145581
26.272156,-0.267412,-9.608873,-2.069861
26.305549,-0.273098,-9.600643,-1.840608
26.338870,-0.178075,-9.565327,-2.171618
26.372244,-0.091881,-9.575353,-2.207832
26.405493,-0.149493,-9.616355,-1.937577
26.438942,-0.167600,-9.613213,-1.897921
26.472229,-0.236735,-9.591065,-2.023622
26.505498,-0.243768,-9.618300,-2.019731
26.538823,-0.272500,-9.729036,-2.040082
26.572258,-0.337295,-9.649426,-2.032600
26.605494,-0.329813,-9.527766,-2.060284
26.638897,-0.284471,-9.579094,-2.068215
26.672224,-0.228505,-9.581189,-2.050408
26.705533,-0.211745,-9.603037,-2.082282
26.738896,-0.190795,-9.601241,-2.047864
26.772238,-0.143807,-9.546621,-2.111163
26.805519,-0.102056,-9.590916,-1.962118
26.838831,-0.122707,-9.631170,-1.929047
26.872254,-0.111334,-9.649576,-1.971695
26.905484,-0.071978,-9.609023,-2.065671
26.938848,-0.116721,-9.651970,-2.046068
26.972241,-0.173436,-9.737715,-1.982619
27.005492,-0.168648,-9.668431,-2.198255
27.038820,-0.140066,-9.587175,-2.239257
27.072156,-0.131087,-9.583733,-2.071507
27.105502,-0.125550,-9.604683,-1.987707
27.138877,-0.100111,-9.582685,-2.035294
27.172235,-0.105049,-9.601091,-2.095450
27.205594,-0.156826,-9.569966,-2.048313
27.238824,-0.124653,-9.590317,-2.061481
27.272177,-0.158622,-9.623987,-1.950596
27.305539,-0.137522,-9.579393,-2.000277
27.338824,-0.128693,-9.572210,-2.119393
27.372253,-0.106097,-9.692823,-2.074201
27.405552,-0.123605,-9.677709,-2.054298
27.438888,-0.184510,-9.623837,-2.136153
27.472209,-0.217132,-9.649426,-2.075997
27.505547,-0.227906,-9.519686,-2.252426
27.538863,-0.260977,-9.502626,-2.074500
27.572310,-0.266065,-9.503824,-2.101735
27.605547,-0.223866,-9.566524,-2.128671
27.638831,-0.147398,-9.598248,-2.053999
27.672184,-0.124802,-9.718561,-1.926503
27.705547,-0.098764,-9.715419,-1.992945
27.738817,-0.126448,-9.653766,-1.948950
27.772318,-0.216234,-9.631469,-2.089614
27.805545,-0.324127,-9.530310,-2.174312
27.838823,-0.389970,-9.497539,-1.983817
27.872266,-0.388323,-9.581039,-2.056842
27.905549,-0.332956,-9.550213,-2.249582
27.938854,-0.333105,-9.559191,-2.063427
27.972267,-0.285668,-9.601241,-2.117148
28.005542,-0.214738,-9.582835,-2.158899
28.038878,-0.186156,-9.599595,-2.003270
28.072232,-0.211445,-9.587175,-1.910940
28.105257,-0.127197,-9.665887,-1.988904
28.138890,-0.133930,-9.690728,-2.048762
28.172220,-0.172987,-9.683694,-2.115203
28.205529,-0.263521,-9.575951,-2.118046
28.238875,-0.313352,-9.506816,-2.050557
28.272230,-0.312754,-9.578944,-1.951943
28.305593,-0.278186,-9.593609,-2.032301
28.338933,-0.288661,-9.609023,-2.163538
28.372167,-0.302877,-9.541085,-2.145880
28.405491,-0.323678,-9.573707,-2.061481
28.438821,-0.266963,-9.618001,-2.180896
28.472168,-0.246163,-9.618899,-2.054448
28.505487,-0.218928,-9.591664,-2.088267
28.538851,-0.153085,-9.579842,-2.209628
28.572257,-0.165355,-9.528814,-2.073602
28.605014,-0.199773,-9.558593,-1.893133
28.638824,-0.184510,-9.653766,-1.964962
28.672177,-0.211146,-9.594657,-2.101885
28.705493,-0.299436,-9.598248,-2.037987
28.738855,-0.339091,-9.485268,-2.035593
28.772224,-0.353906,-9.558743,-2.082731
28.805642,-0.338941,-9.558593,-1.995189
28.838830,-0.228205,-9.530310,-2.179550
28.872163,-0.129142,-9.648828,-2.163538
28.905634,-0.103852,-9.773181,-2.082282
28.938862,-0.156826,-9.698958,-2.103681
28.972226,-0.199175,-9.641345,-2.034396
29.005482,-0.265467,-9.575951,-2.007011
29.038827,-0.312305,-9.546472,-2.128671
29.072241,-0.348069,-9.526120,-2.176856
29.104853,-0.371414,-9.464318,-2.219803
29.138831,-0.373509,-9.481078,-2.090362
29.172251,-0.380243,-9.542581,-1.977681
29.205654,-0.371863,-9.571462,-2.045021
29.238763,-0.256039,-9.581189,-2.215015
29.272155,-0.167600,-9.585379,-2.227585
29.305600,-0.119116,-9.631170,-2.070909
29.338845,-0.115524,-9.798770,-1.941019
29.372160,-0.102505,-9.659602,-2.215464
29.405535,-0.108042,-9.673968,-2.247188
29.438862,-0.178374,-9.695666,-2.150818
29.472170,-0.195284,-9.625334,-2.192868
29.505564,-0.213690,-9.591963,-2.173713
29.538406,-0.172089,-9.569517,-2.256915
29.571779,-0.135128,-9.646733,-2.193766
29.604811,-0.199324,-9.485118,-1.952392
29.638400,-0.307367,-9.517890,-1.869639
29.671763,-0.314849,-9.465665,-2.026764
29.705132,-0.359891,-9.587175,-2.171918
29.738415,-0.380841,-9.513700,-2.145581
29.771749,-0.367523,-9.568619,-2.145880
29.805180,-0.311257,-9.629524,-2.227286
29.838414,-0.193189,-9.694918,-2.197058
29.871755,-0.174933,-9.623538,-2.069263
29.905116,-0.209799,-9.552757,-1.939971
29.938412,-0.293450,-9.524025,-1.845098
29.971747,-0.331758,-9.513850,-1.885052
30.005558,-0.286267,-9.561885,-2.040382
30.038830,-0.274296,-9.653466,-2.211124
30.072289,-0.266514,-9.672471,-2.177903
30.105574,-0.266514,-9.690877,-2.135255
30.138882,-0.297041,-9.606179,-2.078989
30.172189,-0.307666,-9.531208,-2.070161
30.205489,-0.294946,-9.534351,-2.128072
30.238894,-0.244816,-9.598697,-2.137500
30.272235,-0.244966,-9.566823,-2.157402
30.305340,-0.236735,-9.548268,-1.934285
30.338825,-0.188700,-9.600493,-2.070609
30.371959,-0.167750,-9.658255,-2.065372
30.405552,-0.217282,-9.601091,-2.001025
30.438825,-0.276241,-9.624136,-2.075099
30.472238,-0.276391,-9.619348,-2.162790
30.505615,-0.294946,-9.641345,-2.162041
30.538130,-0.309611,-9.624885,-2.247338
30.572180,-0.320535,-9.565626,-2.227585
30.605564,-0.240476,-9.550363,-2.155158
30.638875,-0.147249,-9.643291,-2.119692
30.672175,-0.153983,-9.646433,-1.975736
30.705545,-0.158023,-9.587474,-1.904356
30.738947,-0.157873,-9.623089,-2.009854
30.772162,-0.183911,-9.629524,-2.084826
30.805160,-0.238531,-9.628476,-2.080636
30.838879,-0.257835,-9.583583,-2.115053
30.872236,-0.213391,-9.642243,-2.100239
30.905555,-0.245414,-9.605431,-2.056992
30.938886,-0.252597,-9.525971,-2.028859
30.972157,-0.214438,-9.608125,-2.048313
31.005540,-0.200372,-9.602438,-2.031253
31.038850,-0.224614,-9.584930,-2.024519
31.072276,-0.203065,-9.602588,-2.119094
31.105483,-0.162213,-9.554253,-2.111312
31.138822,-0.108641,-9.574006,-1.998482
31.172256,-0.114626,-9.551560,-1.925306
31.205534,-0.071529,-9.655113,-1.826542
31.238944,-0.086643,-9.668281,-1.989503
31.272149,-0.114776,-9.663343,-1.994890
31.305018,-0.178225,-9.585229,-2.058339
31.338967,-0.193339,-9.578046,-2.175808
31.372208,-0.171940,-9.486016,-2.128222
31.405387,-0.160866,-9.585529,-1.892834
31.438871,-0.203065,-9.563531,-1.872333
31.472202,-0.242571,-9.543479,-1.889242
31.505517,-0.316196,-9.636856,-2.022873
31.538835,-0.353008,-9.614559,-2.111761
31.572174,-0.339989,-9.641345,-2.153362
31.605610,-0.306618,-9.540336,-2.184039
31.638827,-0.162961,-9.544227,-2.241951
31.672161,-0.042349,-9.672920,-2.207682
31.705572,0.029180,-9.675015,-1.965261
31.738837,-0.001197,-9.565476,-1.902411
31.772251,-0.048185,-9.559341,-1.825644
31.804861,-0.135726,-9.541983,-1.659989
31.838829,-0.205310,-9.705393,-1.942216
31.872265,-0.246013,-9.677260,-2.169224
31.905159,-0.277588,-9.654813,-2.504724
31.938817,-0.252897,-9.499185,-2.642694
31.972260,-0.233593,-9.435137,-2.336375
32.005506,-0.219526,-9.441273,-1.664030
32.038929,-0.184659,-9.577747,-1.672260
32.072204,-0.102954,-9.707039,-1.902261
32.105535,-0.111484,-9.708236,-2.108918
32.138907,-0.025140,-9.728737,-2.340715
32.172249,0.036513,-9.789193,-2.393389
32.205491,-0.035166,-9.685041,-2.277865
32.238874,-0.116273,-9.515047,-2.147825
32.272183,-0.234042,-9.364057,-1.931890
32.305499,-0.250053,-9.441722,-1.859164
32.338922,-0.147698,-9.561436,-2.056992
32.372159,-0.110287,-9.703597,-2.133759
32.404969,-0.130938,-9.710630,-2.118645
32.438818,-0.180769,-9.666336,-2.211573
32.472241,-0.258134,-9.558892,-2.254670
32.505488,-0.258583,-9.548118,-2.303903
32.538806,-0.199175,-9.620395,-2.184338
32.571383,-0.162363,-9.659303,-2.021527
32.605493,-0.222818,-9.635958,-2.002223
32.638862,-0.283723,-9.518638,-1.944460
32.672209,-0.300782,-9.445014,-2.143037
32.705573,-0.311108,-9.521631,-2.085873
32.738821,-0.280880,-9.553206,-2.094852
32.772218,-0.212493,-9.598398,-2.103830
32.805562,-0.147099,-9.645984,-2.218008
32.838894,-0.145603,-9.707338,-2.188528
32.872257,-0.171042,-9.667683,-2.050408
32.904832,-0.208303,-9.655412,-2.103531
32.938861,-0.166702,-9.562184,-2.097994
32.972408,-0.173586,-9.532555,-2.106973
33.005481,-0.176279,-9.553954,-2.103381
33.038851,-0.284022,-9.521481,-1.932639
33.072368,-0.290008,-9.472698,-1.894031
33.105494,-0.190795,-9.636258,-2.136752
33.138892,-0.219676,-9.674267,-2.158450
33.172219,-0.346124,-9.637455,-1.793321
33.205486,-0.246163,-9.701502,-2.131664
33.238460,-0.094874,-9.843812,-2.595856
33.271809,-0.193039,-9.690728,-2.441724
33.305115,-0.251849,-9.493349,-2.040831
33.338448,-0.175232,-9.491852,-2.091260
33.372288,-0.071230,-9.528814,-1.860211
33.405106,-0.045491,-9.580740,-1.899268
33.438447,-0.005986,-9.601840,-1.997284
33.472288,-0.071380,-9.686538,-1.995339
33.505491,-0.120463,-9.639550,-1.899867
33.538987,-0.134529,-9.704046,-1.980674
33.572240,-0.099213,-9.621742,-2.139296
33.605409,-0.117619,-9.674865,-2.103531
33.638564,-0.105498,-9.680552,-2.027213
33.671861,-0.092928,-9.605581,-2.093654
33.704990,-0.027085,-9.578046,-2.034246
33.738837,0.036513,-9.609172,-1.904506
33.772330,0.058361,-9.590168,-1.825494
33.805487,0.035016,-9.494546,-1.724186
33.838842,-0.019903,-9.566674,-1.709521
33.872246,-0.096220,-9.601540,-1.818910
33.905490,-0.146351,-9.629973,-1.935183
33.938858,-0.124952,-9.692673,-1.991149
33.972246,-0.116123,-9.743252,-2.022125
34.005492,-0.226709,-9.675314,-1.989802
34.038899,-0.300782,-9.545873,-1.976035
34.072238,-0.352708,-9.461624,-2.164885
34.105476,-0.328766,-9.530909,-2.166082
34.138859,-0.379943,-9.530161,-2.059536
34.172243,-0.438603,-9.247485,-2.116101
34.205550,-0.429026,-9.218604,-2.068963
34.238909,-0.177327,-9.548567,-1.948351
34.272160,-0.206358,-9.808946,-1.817264
34.305490,-0.152037,-9.893643,-2.068963
34.338960,-0.095472,-9.787996,-2.250630
34.372142,-0.107893,-9.788744,-2.165184
34.405480,-0.132284,-9.648977,-2.069861
34.438899,-0.195284,-9.647331,-1.960173
34.472310,-0.232844,-9.522828,-1.957928
34.505522,-0.207555,-9.581937,-2.070759
34.538882,-0.217880,-9.651671,-2.087220
34.572266,-0.215635,-9.634911,-2.067467
34.605510,-0.298538,-9.623538,-1.988605
34.638829,-0.355402,-9.508163,-2.043225
34.672224,-0.345226,-9.513401,-2.144234
34.705211,-0.278186,-9.591215,-2.181046
34.738807,-0.216982,-9.630571,-2.171469
34.772212,-0.190346,-9.668431,-2.101436
34.805501,-0.190645,-9.613961,-2.052652
34.838825,-0.196332,-9.612614,-2.016289
34.872181,-0.205310,-9.549165,-2.082880
34.905589,-0.199624,-9.559940,-2.047415
34.938829,-0.152187,-9.560538,-2.036491
34.972209,-0.117769,-9.553355,-1.975437
35.005602,-0.173586,-9.653317,-1.952840
35.038900,-0.184659,-9.688633,-1.932190
35.072246,-0.263521,-9.597799,-2.204690
35.105558,-0.312305,-9.597201,-2.230428
35.138876,-0.273098,-9.680402,-2.214865
35.172263,-0.192740,-9.720806,-2.308841
35.204525,-0.224315,-9.645086,-2.144533
35.238868,-0.246312,-9.594507,-2.012847
35.272216,-0.278934,-9.584780,-1.977083
35.305202,-0.344777,-9.612464,-1.881760
35.338891,-0.358694,-9.536146,-2.003120
35.372284,-0.329813,-9.548268,-2.159797
35.405571,-0.299136,-9.589120,-1.983517
35.439014,-0.207854,-9.471650,-2.215015
35.472166,-0.231498,-9.396679,-1.827290
35.505485,-0.331908,-9.483173,-1.305934
35.538913,-0.241075,-9.774228,-1.610008
35.572187,-0.188700,-9.793083,-2.157702
35.605509,-0.242122,-9.723649,-2.064474
35.638864,-0.182714,-9.649576,-2.266791
35.672205,-0.188700,-9.663942,-2.257813
35.705537,-0.252298,-9.516693,-1.891188
35.738916,-0.274146,-9.510408,-1.832528
35.772188,-0.254094,-9.519835,-1.823399
35.805493,-0.281179,-9.522828,-1.957779
35.838725,-0.246163,-9.615158,-1.957779
35.872215,-0.070781,-9.736369,-2.196310
35.905543,-0.062551,-9.745198,-2.095600
35.938859,-0.193488,-9.566973,-2.003569
35.972146,-0.406430,-9.504721,-1.708773
36.005529,-0.402390,-9.456387,-1.844798
36.038888,-0.237483,-9.601241,-2.055196
36.072278,-0.143807,-9.621593,-2.122386
36.105521,-0.138120,-9.563381,-1.968703
36.138823,-0.083052,-9.635809,-2.155307
36.172270,0.025888,-9.775425,-2.285197
36.205487,0.039206,-9.781860,-2.220552
36.238824,0.048185,-9.697162,-2.255269
36.272195,-0.040853,-9.741457,-2.030954
36.305553,-0.126299,-9.573408,-2.074051
36.338874,-0.184959,-9.543180,-2.056244
36.372154,-0.157125,-9.517890,-1.989802
36.405555,-0.108491,-9.554253,-2.156804
36.438881,-0.158921,-9.610369,-1.980824
36.472187,-0.236735,-9.594657,-1.865898
36.505558,-0.308713,-9.655113,-2.062379
36.538923,-0.307067,-9.537792,-1.968104
36.572214,-0.230749,-9.544826,-2.150369
36.605494,-0.164158,-9.688184,-2.342960
36.638917,-0.142460,-9.636407,-2.054298
36.672161,-0.173586,-9.634611,-1.998482
36.705580,-0.049382,-9.663343,-2.056992
36.738888,-0.043247,-9.660350,-2.084676
36.772248,-0.098615,-9.669179,-1.919620
36.805563,-0.137672,-9.561586,-1.974539
36.838946,-0.209201,-9.433342,-1.980075
36.872229,-0.188101,-9.531059,-1.904356
36.905561,-0.059708,-9.593759,-1.938026
36.938707,-0.018406,-9.682348,-2.054448
36.972136,0.005537,-9.687585,-1.964962
37.005548,0.000000,-9.613362,-1.945209
37.038894,0.017359,-9.673519,-1.933686
37.072189,-0.000299,-9.704944,-2.113557
37.105493,-0.085596,-9.508462,-2.183141
37.138898,-0.221621,-9.418377,-1.658044
37.172205,-0.390119,-9.622790,-1.623626
37.205596,-0.298388,-9.567571,-2.037688
37.238827,-0.231647,-9.744749,-2.119543
37.272164,-0.078263,-9.799069,-2.187032
37.305638,-0.089636,-9.722602,-2.307494
37.338829,-0.087242,-9.548268,-1.967805
37.372169,-0.084249,-9.644787,-2.073153
37.405576,-0.087691,-9.649576,-1.757407
37.438337,-0.250951,-9.433192,-1.645773
37.472156,-0.322032,-9.523876,-2.069113
37.505556,-0.364231,-9.522230,-2.142588
37.538824,-0.345825,-9.627129,-1.958527
37.572221,-0.286267,-9.678906,-2.425114
37.605494,-0.211146,-9.650324,-2.189127
37.638955,-0.301531,-9.736219,-1.971097
37.672159,-0.228804,-9.583733,-2.237162
37.705496,-0.167002,-9.558743,-1.992197
37.738976,-0.140365,-9.543329,-1.717302
37.772161,-0.130788,-9.555001,-1.792274
37.805492,-0.136474,-9.572959,-1.830133
37.838967,-0.187952,-9.581937,-1.776112
37.872158,-0.164158,-9.690279,-2.021377
37.905573,-0.200222,-9.627279,-1.990401
37.938173,-0.251251,-9.594058,-1.944909
37.972165,-0.193788,-9.634163,-2.083928
38.005510,-0.149194,-9.636407,-2.026016
38.038565,-0.073774,-9.606628,-2.030505
38.072161,-0.040254,-9.574605,-2.169224
38.105567,-0.031126,-9.593160,-1.621531
38.139006,-0.067040,-9.633265,-1.862755
38.172206,-0.027235,-9.655412,-2.104279
38.205496,-0.191393,-9.588372,-1.930544
38.238915,-0.253645,-9.553804,-1.831630
38.272232,-0.251251,-9.661697,-2.146778
38.305009,-0.231198,-9.608873,-2.190473
38.338887,-0.302129,-9.523427,-2.175509
38.372192,-0.332058,-9.524025,-1.685578
38.405576,-0.313502,-9.752530,-1.743340
38.438003,-0.260528,-9.801014,-2.223545
38.472160,-0.301830,-9.531059,-2.384411
38.505635,-0.292402,-9.468657,-2.223096
38.538586,-0.203065,-9.634761,-2.162191
38.572154,-0.121061,-9.664989,-1.986660
38.605560,-0.060605,-9.672770,-1.976035
38.638884,-0.079610,-9.685191,-1.938774
38.672189,-0.101907,-9.701053,-1.947004
38.705515,-0.160866,-9.574455,-1.972444
38.738858,-0.215187,-9.584032,-1.951344
38.772199,-0.252298,-9.563830,-1.952392
38.805499,-0.253944,-9.550512,-2.062678
38.838940,-0.279832,-9.556348,-2.058339
38.872202,-0.209949,-9.582835,-2.076595
38.905496,-0.178823,-9.600942,-1.879216
38.938860,-0.157275,-9.550213,-1.920967
38.972220,-0.131686,-9.626531,-1.886249
39.005494,-0.065544,-9.774378,-1.987707
39.038316,-0.035615,-9.779765,-2.088118
39.072232,-0.072128,-9.718412,-1.983068
39.105498,-0.221322,-9.658405,-1.985163
39.138604,-0.341485,-9.484819,-2.036790
39.172133,-0.405532,-9.344603,-2.197806
39.205489,-0.366775,-9.399971,-2.126875
39.238940,-0.338343,-9.557695,-1.733314
39.272169,-0.222818,-9.673219,-1.884454
39.305582,-0.130638,-9.746245,-2.111462
39.338908,-0.111783,-9.746095,-2.208131
39.372228,-0.172389,-9.641345,-2.037089
39.405489,-0.200073,-9.686987,-1.897622
39.438852,-0.222669,-9.662894,-2.026315
39.472280,-0.274146,-9.541983,-2.022125
39.505491,-0.269657,-9.538092,-2.046068
39.538222,-0.206507,-9.657357,-2.176706
39.572303,-0.210248,-9.620096,-2.014942
39.605490,-0.194985,-9.668580,-1.953140
39.638668,-0.152486,-9.634462,-2.030505
39.672159,-0.128244,-9.584780,-1.951643
39.705593,-0.139018,-9.620395,-1.952691
39.738872,-0.148595,-9.572659,-2.064474
39.772270,-0.247809,-9.578196,-1.811278
39.805542,-0.192142,-9.602738,-2.035593
39.838878,-0.120014,-9.659602,-2.279661
39.872023,-0.155778,-9.635958,-1.891337
39.905206,-0.143807,-9.667383,-1.904506
39.938891,-0.110736,-9.679055,-2.161143
39.971669,-0.117170,-9.588372,-2.050707
40.005501,-0.170294,-9.440824,-2.059686
40.038902,-0.250203,-9.431696,-1.613750
40.072180,-0.329813,-9.618300,-1.652507
40.105641,-0.141413,-9.702998,-2.218606
40.138411,-0.045491,-9.719609,-2.353884
40.172310,-0.099961,-9.709882,-2.039184
40.205293,-0.116871,-9.680552,-2.012548
40.238792,-0.166852,-9.658554,-1.934434
40.272214,-0.150242,-9.504871,-2.018833
40.305498,-0.154880,-9.519237,-2.040681
40.338951,-0.189897,-9.528964,-1.888644
40.372192,-0.181218,-9.539888,-1.860810
40.405566,-0.154731,-9.617253,-2.019581
40.438170,-0.153983,-9.606479,-2.061631
40.472187,-0.106097,-9.668431,-2.008657
40.505611,-0.093527,-9.676212,-1.856470
40.538827,-0.083052,-9.672621,-1.916627
40.572147,-0.130489,-9.691027,-2.048911
40.605491,-0.176579,-9.658105,-2.143186
40.638356,-0.175980,-9.519985,-2.211872
40.672127,-0.187952,-9.492151,-1.989653
40.705493,-0.214289,-9.608574,-1.710718
40.738879,-0.164607,-9.708086,-1.702189
40.771936,-0.078413,-9.741606,-2.209478
40.805464,-0.055817,-9.636258,-2.178352
40.838804,-0.119864,-9.579244,-1.987408
40.872127,-0.138270,-9.618151,-1.883256
40.905544,-0.221771,-9.588821,-1.766086
40.938858,-0.225811,-9.526270,-2.034097
40.972154,-0.250353,-9.541534,-2.184937
41.005492,-0.235388,-9.588073,-2.082880
41.038863,-0.199773,-9.613811,-2.091859
41.072188,-0.171491,-9.639999,-2.034546
41.105488,-0.142759,-9.671723,-1.934883
41.138795,-0.141862,-9.659752,-1.932639
41.172149,-0.121809,-9.716317,-2.033947
41.205333,-0.160866,-9.593759,-2.055944
41.238796,-0.150242,-9.592562,-2.157402
41.272165,-0.201120,-9.468508,-1.956582
41.305284,-0.222669,-9.623538,-1.815468
41.338834,-0.152785,-9.662744,-2.030356
41.372310,-0.168348,-9.649426,-2.300910
41.405495,-0.244816,-9.558144,-2.049061
41.438824,-0.209051,-9.544377,-2.216511
41.472257,-0.213840,-9.515047,-2.007011
41.505501,-0.219227,-9.684742,-1.706379
41.538890,-0.078413,-9.793233,-2.115802
41.572163,-0.072278,-9.692972,-2.308691
41.605498,-0.198576,-9.546173,-1.874876
41.638963,-0.199474,-9.572210,-2.012997
41.672179,-0.119864,-9.614559,-2.283402
41.705577,-0.185557,-9.547669,-2.020030
41.738498,-0.174633,-9.543329,-1.991299
41.772150,-0.144106,-9.621144,-2.100239
41.805334,-0.138270,-9.675763,-2.004467
41.838822,-0.109389,-9.605880,-2.103830
41.872273,-0.093078,-9.635509,-2.121787
41.905489,-0.117619,-9.684892,-2.069712
41.938887,-0.095173,-9.641495,-2.045918
41.972160,-0.105049,-9.621892,-2.012398
42.005552,-0.200821,-9.617851,-2.015242
42.038884,-0.222818,-9.528365,-2.095899
42.072291,-0.268310,-9.555450,-2.176257
42.105498,-0.161165,-9.543030,-2.211723
42.138929,-0.155479,-9.568769,-2.134956
42.172223,-0.265018,-9.526569,-1.655949
42.205495,-0.245265,-9.649875,-1.701590
42.238831,-0.122258,-9.692224,-2.252426
42.272311,-0.089935,-9.656160,-2.295822
42.305491,-0.170593,-9.609621,-2.113407
42.338829,-0.206358,-9.585229,-2.074351
42.372203,-0.216084,-9.501130,-1.927401
42.405501,-0.184061,-9.669478,-1.982919
42.438630,-0.195284,-9.603037,-2.075398
42.472133,-0.244517,-9.574754,-2.108020
42.505495,-0.205460,-9.637904,-2.168775
42.538892,-0.198427,-9.638951,-2.142887
42.572160,-0.179721,-9.640148,-2.115053
42.605569,-0.160268,-9.612764,-1.995938
42.638907,-0.115375,-9.652269,-2.079588
42.672162,-0.078114,-9.607825,-2.170122
42.705510,-0.059408,-9.577448,-2.114305
42.738924,-0.126598,-9.482425,-1.908546
42.772315,-0.156377,-9.542731,-1.676749
42.805613,-0.039955,-9.732029,-1.829984
42.838837,-0.020202,-9.764053,-2.225191
42.872215,-0.092330,-9.701502,-2.193466
42.905582,-0.256787,-9.525971,-1.968852
42.938857,-0.268459,-9.608424,-2.060434
42.972147,-0.242422,-9.559790,-2.112360
43.005548,-0.182564,-9.473745,-2.171020
43.038296,-0.084997,-9.556348,-2.162341
43.072175,-0.005836,-9.630272,-2.033498
43.105483,0.075121,-9.605730,-2.017187
43.138828,0.108042,-9.634911,-1.829984
43.172167,0.078413,-9.694169,-1.886549
43.205516,-0.026038,-9.667982,-1.956881
43.238807,-0.083501,-9.605132,-1.990251
43.272127,-0.146949,-9.575353,-2.054747
43.305462,-0.195583,-9.594507,-2.102184
43.338848,-0.261576,-9.579842,-2.060883
43.372223,-0.227757,-9.536296,-2.214566
43.405569,-0.109688,-9.525821,-2.389948
43.438369,-0.149643,-9.545125,-1.927551
43.471408,-0.171940,-9.641495,-1.705780
43.505490,-0.105049,-9.653466,-2.010303
43.538810,-0.061054,-9.678607,-2.063127
43.572232,-0.163560,-9.564279,-1.968553
43.605480,-0.185408,-9.587923,-2.124631
43.638874,-0.221172,-9.603186,-2.147077
43.672185,-0.233293,-9.545275,-2.056393
43.705453,-0.190944,-9.642094,-2.038287
43.738865,-0.220424,-9.634911,-2.016439
43.772130,-0.181218,-9.602588,-2.055795
43.805469,-0.087840,-9.636407,-2.176557
43.838843,-0.085147,-9.666485,-2.064025
43.872234,-0.159968,-9.566973,-1.989952
43.905458,-0.138120,-9.589719,-1.797810
43.938824,-0.134230,-9.720955,-2.028709
43.972328,-0.146949,-9.634312,-2.155158
44.005545,-0.343431,-9.441422,-1.890739
44.038892,-0.283873,-9.541983,-2.070759
44.072241,-0.209201,-9.570864,-2.323955
44.105575,-0.222818,-9.488859,-1.935931
44.138876,-0.190944,-9.584930,-1.984265
44.172213,-0.042050,-9.732927,-2.259758
44.205568,0.002394,-9.752380,-2.275620
44.238854,-0.082603,-9.613063,-2.047116
44.272242,-0.076468,-9.679804,-1.973641
44.305590,-0.137372,-9.525073,-2.051904
44.340353,-0.231647,-9.452346,-1.989802
44.372202,-0.207555,-9.513700,-2.030804
44.405493,-0.187952,-9.651222,-2.212770
44.438883,-0.162812,-9.616056,-2.305848
44.472153,-0.150092,-9.556199,-2.297618
44.505493,-0.071380,-9.662295,-2.108469
44.538833,-0.064795,-9.681150,-1.854525
44.572145,-0.065843,-9.661847,-2.019432
44.605518,-0.121061,-9.621144,-2.091260
44.638897,-0.201868,-9.597350,-2.099939
44.672247,-0.232844,-9.507265,-2.303454
44.705530,-0.258433,-9.423765,-2.025717
44.738851,-0.234341,-9.548866,-1.744687
44.772212,-0.128992,-9.758516,-1.908845
44.805515,-0.075420,-9.779466,-2.210526
44.838811,-0.128094,-9.623538,-2.191820
44.872431,-0.173735,-9.547968,-2.213369
44.905535,-0.119714,-9.617253,-2.227136
44.938810,-0.127197,-9.613961,-2.026165
44.971877,-0.163260,-9.506068,-1.880413
45.005455,-0.150990,-9.441572,-1.957330
45.038868,-0.161764,-9.518489,-1.891038
45.072112,-0.088589,-9.654364,-2.015690
45.105448,-0.140215,-9.697312,-2.114305
45.137948,-0.243020,-9.679355,-1.935033
45.172194,-0.273098,-9.660799,-2.342511
45.205543,-0.238980,-9.575353,-2.524177
45.238805,-0.280581,-9.442171,-2.182243
45.272185,-0.288063,-9.541683,-1.914083
45.305609,-0.238980,-9.645386,-1.904955
45.338845,-0.256787,-9.562783,-1.913484
45.372355,-0.140964,-9.639400,-2.174162
45.405533,-0.058061,-9.643590,-2.435140
45.438877,-0.111035,-9.603186,-2.074799
45.472191,-0.148446,-9.602289,-1.813972
45.505552,-0.120762,-9.661398,-2.047265
45.538813,-0.147249,-9.651521,-2.053251
45.572156,-0.238980,-9.512952,-2.039334
45.605547,-0.268160,-9.512652,-2.090811
45.638807,-0.269657,-9.613512,-2.102034
45.672144,-0.251101,-9.609172,-2.160545
45.705596,-0.212942,-9.687136,-2.214267
45.738874,-0.206807,-9.675763,-2.307494
45.772228,-0.222818,-9.561436,-2.046367
45.805448,-0.217730,-9.616355,-2.031104
45.838780,-0.240327,-9.650174,-1.961071
45.872128,-0.304823,-9.656759,-1.818311
45.905524,-0.318739,-9.432594,-2.362264
45.938799,-0.293151,-9.492900,-2.343857
45.971749,-0.363183,-9.470752,-2.074051
46.005514,-0.402091,-9.479581,-1.998182
46.038807,-0.370366,-9.568918,-1.966308
46.072135,-0.213690,-9.686987,-2.194364
46.105506,-0.153234,-9.731580,-2.349544
46.138341,-0.148745,-9.612015,-2.220252
46.171567,-0.163410,-9.558144,-2.179400
46.205019,-0.191094,-9.625483,-1.996985
46.238454,-0.266215,-9.532705,-1.928000
46.271629,-0.271602,-9.484071,-2.272927
46.305034,-0.226859,-9.496790,-2.343857
46.338301,-0.181367,-9.602738,-2.151267
46.372188,-0.093228,-9.786050,-2.152015
46.405543,-0.090684,-9.722153,-2.328444
46.438816,-0.077066,-9.575054,-2.292081
46.472103,-0.114477,-9.468209,-2.063876
46.505529,-0.171042,-9.639699,-1.848090
46.538881,-0.157275,-9.596901,-2.146179
46.572530,-0.129292,-9.555750,-2.214117
46.605485,-0.186006,-9.567123,-2.039484
46.638862,-0.212343,-9.648229,-2.055496
46.672272,-0.157574,-9.580740,-2.430950
46.705511,-0.175681,-9.558743,-2.233122
46.737914,-0.146052,-9.566374,-2.062229
46.772214,-0.146650,-9.595405,-2.119543
46.805475,-0.193039,-9.542880,-1.980824
46.838829,-0.215486,-9.516842,-2.020329
46.872155,-0.098166,-9.626680,-2.268288
46.905534,-0.093078,-9.638353,-2.191820
46.938822,-0.116273,-9.634611,-1.884753
46.971975,-0.080209,-9.726941,-2.067766
47.005450,-0.095173,-9.690428,-2.301359
47.038812,-0.159669,-9.511605,-2.265744
47.072186,-0.251251,-9.432743,-2.034246
47.105480,-0.201120,-9.585678,-1.865299
47.138802,-0.194985,-9.593310,-1.918123
47.172120,-0.223567,-9.529712,-2.083778
47.205289,-0.222818,-9.541384,-2.223993
47.238807,-0.173436,-9.561286,-2.257065
47.272124,-0.048484,-9.651820,-2.228034
47.305565,-0.055518,-9.656010,-2.128072
47.338897,-0.150840,-9.550811,-1.906301
47.372159,-0.270554,-9.451149,-1.790328
47.405515,-0.257386,-9.581339,-2.115502
47.438878,-0.337295,-9.548567,-2.133609
47.472108,-0.316345,-9.615906,-2.060883
47.505474,-0.182115,-9.727390,-2.420475
47.538917,-0.059109,-9.676960,-2.572961
47.571944,-0.015713,-9.655861,-2.096348
47.605465,-0.062551,-9.651072,-2.031702
47.638777,-0.074821,-9.624735,-1.737804
47.672136,-0.133182,-9.572061,-1.997284
47.705492,-0.119565,-9.499035,-2.344306
47.738914,-0.217132,-9.440225,-2.124032
47.772139,-0.313203,-9.493797,-1.966907
47.805434,-0.217132,-9.599745,-2.296870
47.838819,-0.115524,-9.624436,-2.350591
47.872158,-0.060905,-9.600493,-2.063127
47.905550,-0.025439,-9.807449,-1.982769
47.938856,0.055069,-9.899629,-2.098593
47.972203,0.049681,-9.630870,-2.256167
48.005513,-0.140515,-9.427506,-2.090362
48.038931,-0.261576,-9.405957,-1.916477
48.072257,-0.284471,-9.386055,-2.121937
48.105586,-0.316345,-9.453992,-2.097844
48.138896,-0.259930,-9.482425,-1.985163
48.172476,-0.182415,-9.777072,-2.254072
48.205564,-0.076168,-9.857280,-2.350741
48.238979,-0.089786,-9.682797,-2.339817
48.272360,-0.059857,-9.646882,-2.155158
48.305046,-0.087840,-9.655711,-2.062379
48.338840,-0.169246,-9.513101,-1.897772
48.371338,-0.198277,-9.470304,-2.084526
48.404772,-0.178524,-9.406256,-2.147227
48.438106,-0.196930,-9.495892,-2.087968
48.471165,-0.155778,-9.595405,-2.141690
48.504700,-0.098166,-9.608424,-2.258711
48.537973,-0.085296,-9.710032,-2.075099
48.571400,-0.095023,-9.681001,-2.161293
48.604701,-0.147099,-9.555899,-2.256915
48.638059,-0.272799,-9.428104,-1.945209
48.671337,-0.268310,-9.474194,-1.864850
48.704871,-0.220125,-9.701502,-1.940420
48.737980,-0.141113,-9.713473,-2.332634
48.771400,-0.105498,-9.656310,-2.410299
48.804702,-0.121510,-9.718262,-2.390995
48.838093,-0.151738,-9.595555,-2.265445
48.871363,-0.267262,-9.486764,-1.852131
48.904696,-0.265467,-9.483023,-1.826841
48.938931,-0.282526,-9.376777,-2.059835
48.971349,-0.306768,-9.446361,-2.086172
49.004660,-0.276989,-9.528814,-2.160096
49.038001,-0.237633,-9.610369,-2.317371
49.071313,-0.195134,-9.557845,-2.000577
49.105534,-0.233742,-9.582386,-2.039484
49.138072,-0.260977,-9.549914,-2.224742
49.172162,-0.339839,-9.516543,-2.162640
49.205523,-0.356300,-9.567721,-2.206186
49.238353,-0.265167,-9.717663,-2.418529
49.272184,-0.143657,-9.726941,-2.617854
49.305479,-0.076916,-9.623538,-2.408653
49.338780,-0.054470,-9.650773,-2.230129
49.372180,-0.052375,-9.658854,-2.060134
49.405555,-0.121360,-9.530909,-2.059237
49.438830,-0.243319,-9.416133,-2.177155
49.472135,-0.374706,-9.327245,-2.131364
49.505527,-0.429326,-9.415833,-2.137201
49.538709,-0.331160,-9.547220,-2.280858
49.572170,-0.212493,-9.632666,-2.266043
49.605481,-0.102056,-9.771385,-2.308392
49.638817,-0.120313,-9.723499,-2.375133
49.672144,-0.202916,-9.557695,-2.250480
49.705502,-0.254243,-9.570864,-2.246440
49.738798,-0.237034,-9.470453,-2.344306
49.772151,-0.242422,-9.424962,-2.250780
49.805495,-0.213840,-9.461175,-2.181196
49.838721,-0.226110,-9.503075,-2.125977
49.872076,-0.225662,-9.578495,-2.017037
49.905398,-0.210248,-9.637155,-2.196758
49.938801,-0.225213,-9.668431,-2.398328
49.971466,-0.265616,-9.581937,-2.437534
50.005285,-0.321134,-9.532256,-2.453097
50.038073,-0.328616,-9.520284,-2.222497
50.071429,-0.310210,-9.506367,-2.297917
50.104692,-0.299735,-9.466712,-2.195112
50.138082,-0.297789,-9.456387,-2.138847
50.171476,-0.202617,-9.576700,-2.345354
50.204872,-0.118966,-9.626980,-2.289088
50.238542,-0.086045,-9.677858,-2.272927
50.271690,-0.124204,-9.630122,-2.265145
50.305070,-0.197678,-9.597051,-2.075548
50.338916,-0.255740,-9.507116,-2.364209
50.372221,-0.252148,-9.422567,-2.490508
50.405562,-0.335649,-9.436335,-2.275321
50.438834,-0.312454,-9.515645,-2.177903
50.472231,-0.109090,-9.651671,-2.476890
50.505519,-0.029330,-9.602438,-2.320663
50.538592,-0.035316,-9.667832,-2.023173
50.572181,-0.004340,-9.725145,-2.243896
50.605565,-0.070183,-9.603785,-2.344306
50.638867,-0.188550,-9.447857,-2.240903
50.672160,-0.224015,-9.453394,-2.071807
50.705528,-0.265167,-9.494845,-2.122236
50.738904,-0.274146,-9.519536,-2.232673
50.772223,-0.340737,-9.473446,-2.161293
50.805568,-0.298538,-9.492900,-2.260057
50.838874,-0.184360,-9.699706,-2.426909
50.872159,-0.111185,-9.769739,-2.402368
50.904678,-0.114477,-9.640148,-2.459382
50.938863,-0.200671,-9.452047,-2.136153
50.972178,-0.243319,-9.441273,-1.876971
51.005523,-0.251251,-9.523427,-1.941468
51.038843,-0.313502,-9.576550,-2.149471
51.072205,-0.237483,-9.792335,-2.601692
51.105547,-0.291205,-9.703447,-2.442622
51.138363,-0.377998,-9.460577,-2.551562
51.172159,-0.291953,-9.502626,-2.402069
51.205543,-0.184210,-9.630122,-2.322459
51.238817,-0.147997,-9.525821,-2.200350
51.272160,-0.163859,-9.504272,-2.203193
51.305566,-0.157275,-9.455190,-2.288340
51.338837,-0.243619,-9.402815,-2.044721
51.372188,-0.262324,-9.470603,-1.977831
51.405091,-0.242571,-9.532705,-2.158300
51.438203,-0.197678,-9.658255,-2.253623
51.472149,-0.186605,-9.590766,-2.320214
51.505470,-0.165056,-9.609621,-2.370943
51.538074,-0.140664,-9.618450,-2.267989
51.572237,-0.155180,-9.546173,-2.203792
51.605567,-0.158472,-9.448156,-2.065073
51.638783,-0.130489,-9.492451,-2.016439
51.672116,-0.163410,-9.535548,-2.188229
51.705483,-0.149044,-9.603037,-2.316473
51.738734,-0.182864,-9.552308,-2.284898
51.772132,-0.217132,-9.678008,-2.128521
51.805541,-0.207555,-9.700454,-2.225789
51.838785,-0.238082,-9.600194,-2.373187
51.871266,-0.250203,-9.565177,-2.287442
51.905491,-0.236885,-9.545125,-2.279511
51.938846,-0.146052,-9.540785,-2.339219
51.972151,-0.122408,-9.477486,-2.156355
52.005472,-0.139168,-9.453693,-2.051605
52.038777,-0.138270,-9.496341,-2.111911
52.072123,-0.135726,-9.512802,-2.148424
52.105443,-0.123455,-9.632816,-2.171768
52.138769,-0.083800,-9.639250,-2.315425
52.172155,-0.088738,-9.658255,-2.301359
52.205480,-0.099363,-9.642393,-2.266791
52.238732,-0.096819,-9.594507,-2.227435
52.272029,-0.142011,-9.477786,-2.224891
52.305487,-0.126448,-9.426608,-2.280858
52.338668,-0.035316,-9.505021,-2.312582
52.371263,-0.079161,-9.576550,-2.100538
52.405563,-0.086643,-9.513999,-1.975586
52.438862,-0.055667,-9.587474,-2.036940
52.472245,0.056864,-9.702699,-2.162640
52.505580,0.046240,-9.761808,-2.334131
52.537861,-0.010325,-9.683844,-2.310637
52.572167,-0.043845,-9.516094,-2.414489
52.605590,-0.075869,-9.501429,-2.339069
52.638569,-0.064047,-9.495294,-2.171469
52.672171,0.033819,-9.597949,-2.212471
52.705500,0.100410,-9.616056,-2.283551
52.738590,0.129890,-9.601091,-2.125828
52.772211,0.092479,-9.620545,-2.169374
52.805553,0.031275,-9.523277,-2.148723
52.837815,-0.055667,-9.507714,-2.076894
52.872157,-0.037860,-9.506218,-2.190324
52.905602,0.063149,-9.574006,-2.323805
52.938627,0.115824,-9.622640,-2.330539
52.972112,0.140515,-9.610220,-2.295074
53.005497,0.065993,-9.603635,-2.178502
53.038772,0.010475,-9.503375,-1.993843
53.071992,-0.071978,-9.514747,-2.019880
53.105476,-0.052525,-9.607077,-2.347599
53.138806,-0.120014,-9.538990,-2.377078
53.172233,-0.148895,-9.494695,-2.234169
53.205472,-0.201270,-9.537344,-2.052802
53.238853,-0.125251,-9.541534,-2.162341
53.271618,-0.107893,-9.541085,-2.231027
53.305449,-0.147698,-9.602887,-2.025417
53.338675,-0.141712,-9.640148,-2.275920
53.371778,-0.095771,-9.644338,-2.636260
53.405486,-0.106396,-9.592263,-2.369746
53.438847,-0.177327,-9.531807,-2.075099
53.472255,-0.189598,-9.488111,-1.927401
53.505459,-0.129142,-9.474643,-1.979178
53.538802,-0.103703,-9.533154,-2.114305
53.572167,-0.132733,-9.556947,-2.096198
53.605530,-0.121360,-9.552458,-2.214267
53.638901,-0.034418,-9.628326,-2.336974
53.672238,-0.035615,-9.669778,-2.337423
53.705448,-0.068985,-9.532854,-2.107871
53.738084,-0.111634,-9.550512,-2.038885
53.772158,-0.128244,-9.568769,-2.193915
53.805458,-0.182415,-9.557396,-2.169523
53.838833,-0.182564,-9.570864,-2.131813
53.871674,-0.156527,-9.615906,-2.385009
53.904718,-0.044743,-9.636706,-2.484223
53.938831,0.042050,-9.564279,-2.382615
53.972175,0.046539,-9.470752,-2.205737
54.005537,0.083052,-9.587773,-1.987707
54.038801,0.033670,-9.668431,-1.902411
54.072156,-0.067639,-9.651820,-2.070909
54.105463,-0.228654,-9.561286,-2.421373
54.138749,-0.350164,-9.491104,-2.430650
54.171684,-0.323079,-9.426159,-2.567125
54.205489,-0.213241,-9.423765,-2.556201
54.238798,-0.198875,-9.324402,-2.288490
54.272169,-0.107593,-9.299860,-2.032750
54.305508,0.106546,-9.629973,-1.969152
54.338850,0.148745,-9.848601,-1.872781
54.372229,0.083501,-9.903670,-1.689469
54.405505,0.051776,-9.915940,-2.147975
54.438872,0.048634,-9.718711,-2.646735
54.472147,-0.139018,-9.616654,-2.455641
54.505529,-0.375005,-9.611118,-2.299713
54.538870,-0.534525,-9.600343,-2.254820
54.571333,-0.641968,-9.517142,-2.462973
54.604972,-0.601265,-9.343107,-2.689084
54.638791,-0.547693,-9.207531,-2.539740
54.672174,-0.496665,-9.235214,-2.124930
54.705451,-0.381141,-9.530161,-1.928598
54.738792,-0.340737,-9.666635,-2.041429
54.772107,-0.282227,-9.666485,-2.144084
54.805441,-0.182864,-9.755224,-2.078391
54.837839,-0.131985,-9.677409,-2.106524
54.872148,-0.139767,-9.573557,-2.161443
54.904844,-0.407777,-9.490056,-1.797960
54.938285,-0.436808,-9.480180,-2.090213
54.972222,-0.460002,-9.504871,-2.237312
55.005559,-0.589743,-9.411494,-2.001923
55.038898,-0.556223,-9.465964,-2.077792
55.072357,-0.466886,-9.702549,-2.209777
55.105505,-0.387875,-9.778418,-2.447111
55.138806,-0.402839,-9.588372,-2.371990
55.172188,-0.397452,-9.514448,-2.225789
55.205480,-0.388473,-9.525971,-2.161892
55.238016,-0.314101,-9.533154,-2.168476
55.272189,-0.297640,-9.584182,-2.048163
55.305615,-0.245714,-9.540636,-2.010752
55.338803,-0.224015,-9.518788,-1.975736
55.372104,-0.204861,-9.606778,-1.938774
55.405465,-0.246911,-9.454142,-2.052652
55.438884,-0.255291,-9.465216,-1.998182
55.472164,-0.210248,-9.569068,-1.992346
55.504720,-0.135876,-9.717514,-1.886249
55.538810,-0.056116,-9.828100,-2.065222
55.572229,-0.123455,-9.857579,-2.199452
55.605466,-0.312305,-9.586426,-2.194364
55.638052,-0.342383,-9.496491,-2.183141
55.672161,-0.318889,-9.603037,-2.117448
55.705499,-0.297490,-9.521032,-1.956881
55.738893,-0.301082,-9.497987,-1.927102
55.772160,-0.293749,-9.476289,-1.892834
55.805467,-0.279982,-9.534351,-1.971247
55.838861,-0.224764,-9.586426,-2.091559
55.872147,-0.282676,-9.534650,-1.995040
55.905509,-0.340438,-9.531956,-1.892385
55.938825,-0.278635,-9.575951,-2.035144
55.972148,-0.183462,-9.670675,-2.133908
56.005444,-0.136325,-9.772732,-2.163538
56.038249,-0.122558,-9.704495,-2.123284
56.071280,-0.147099,-9.695965,-2.126875
56.105468,-0.205909,-9.637305,-2.073902
56.138827,-0.282975,-9.445612,-2.084077
56.172166,-0.297789,-9.572510,-2.026315
56.205626,-0.269058,-9.548716,-2.140493
56.238820,-0.237184,-9.559940,-2.083628
56.272378,-0.225213,-9.631768,-2.137649
56.305443,-0.255291,-9.595405,-2.152614
56.338881,-0.274894,-9.575353,-2.151716
56.372141,-0.271602,-9.594657,-2.127474
56.405137,-0.241673,-9.620395,-2.130916
56.439001,-0.219377,-9.579244,-2.087519
56.472212,-0.206358,-9.638951,-2.059087
56.505519,-0.252747,-9.573557,-2.018234
56.538872,-0.275343,-9.580141,-2.099640
56.572252,-0.317243,-9.623987,-2.168775
56.605532,-0.291205,-9.546921,-2.209628
56.638871,-0.247958,-9.625633,-2.155307
56.672233,-0.222369,-9.627578,-2.138398
56.704749,-0.224165,-9.597201,-2.020928
56.738836,-0.239129,-9.582087,-1.967655
56.772171,-0.211296,-9.557545,-2.043374
56.805528,-0.185707,-9.558144,-2.101586
56.838906,-0.169695,-9.579842,-2.017486
56.871519,-0.225362,-9.626231,-2.023622
56.905503,-0.238681,-9.513999,-2.181196
56.938719,-0.262773,-9.486764,-2.145880
56.972190,-0.244816,-9.489458,-1.960472
57.005538,-0.174933,-9.631170,-1.979028
57.038855,-0.130040,-9.686089,-2.067018
57.072271,-0.136624,-9.644787,-2.106673
57.105538,-0.191094,-9.617552,-2.073752
57.138845,-0.290906,-9.555450,-2.100388
57.172142,-0.348069,-9.475990,-2.028410
57.205452,-0.241823,-9.478534,-2.221300
57.238894,-0.172239,-9.594358,-2.214566
57.271415,-0.105498,-9.595854,-2.051754
57.305531,-0.076916,-9.703148,-1.871285
57.338851,-0.080209,-9.738464,-1.877420
57.371734,-0.136474,-9.670526,-1.992197
57.405471,-0.212044,-9.548716,-2.171918
57.438839,-0.304972,-9.543778,-2.251528
57.471595,-0.399996,-9.479282,-2.038137
57.504874,-0.406879,-9.451299,-2.122536
57.538079,-0.278486,-9.545424,-2.267240
57.572225,-0.188849,-9.640148,-2.222946
57.605503,-0.117619,-9.690129,-2.331587
57.638884,-0.087391,-9.706590,-2.375881
57.671451,-0.092779,-9.757768,-2.317670
57.705521,-0.218329,-9.606179,-2.384560
57.738835,-0.326371,-9.505619,-2.257663
57.771450,-0.359592,-9.401318,-2.305848
57.805476,-0.379943,-9.333979,-2.353584
57.838122,-0.299735,-9.372587,-2.167728
57.872151,-0.251999,-9.456387,-2.136153
57.905464,-0.159519,-9.552607,-1.997733
57.938818,-0.146949,-9.575951,-2.021676
57.972147,-0.143208,-9.576550,-2.042177
58.005491,-0.280431,-9.619498,-1.906152
58.038798,-0.341186,-9.505470,-2.070909
58.072190,-0.269357,-9.540486,-2.168177
58.105559,-0.118966,-9.667533,-2.364957
58.138842,0.012121,-9.733974,-2.456090
58.172191,0.092479,-9.679804,-2.420475
58.205451,0.096819,-9.550363,-2.311385
58.238521,0.204113,-9.505919,-2.324853
58.271260,0.206807,-9.611716,-2.275022
58.304861,0.160417,-9.453244,-2.148274
58.338781,0.144405,-9.519686,-2.044721
58.372149,0.115375,-9.751932,-2.260506
58.405461,0.008530,-9.731430,-2.518790
58.438893,-0.064047,-9.569218,-2.410898
58.472304,-0.137073,-9.461774,-2.165633
58.505563,0.030976,-9.566075,-2.376629
58.538854,0.132733,-9.527018,-2.202295
58.572319,0.179871,-9.528365,-2.143785
58.605563,0.275792,-9.659153,-2.336525
58.637889,0.272649,-9.569367,-2.220851
58.671821,0.252747,-9.661996,-2.073153
58.705589,0.142759,-9.591963,-2.069861
58.738186,0.042199,-9.405807,-2.204989
58.772213,0.003143,-9.437382,-2.335328
58.805526,0.040104,-9.661697,-2.223545
58.838893,0.053572,-9.715269,-2.218906
58.872170,0.016311,-9.730982,-2.147526
58.905481,-0.080508,-9.568320,-2.116550
58.938852,-0.088589,-9.640148,-2.178502
58.972269,-0.084997,-9.610519,-2.304052
59.005493,-0.211745,-9.592113,-2.167279
59.038932,-0.241673,-9.511156,-2.190025
59.072263,-0.271901,-9.440076,-2.172067
59.105072,-0.347022,-9.512204,-2.020778
59.138907,-0.291804,-9.486166,-2.141391
59.172227,-0.180918,-9.627578,-2.245392
59.205056,-0.165505,-9.732927,-1.918273
59.238816,-0.143508,-9.660051,-2.039933
59.272232,-0.249156,-9.556947,-2.103082
59.305582,-0.284322,-9.496491,-2.127923
59.338952,-0.352559,-9.516693,-2.108619
59.371822,-0.234191,-9.565028,-2.175659
59.405192,-0.169097,-9.670526,-2.106374
59.438923,-0.179272,-9.668580,-1.942964
59.471594,-0.243020,-9.556199,-1.751122
59.505114,-0.247659,-9.642393,-1.795715
59.538547,-0.282975,-9.708685,-1.923660
59.571919,-0.336248,-9.553056,-1.982769
59.605155,-0.429625,-9.582536,-2.240305
59.638467,-0.360939,-9.562035,-2.253922
59.671895,-0.253794,-9.601241,-2.207682
59.705454,-0.140365,-9.669628,-1.834772
59.738104,-0.075869,-9.620994,-1.866496
59.772210,-0.054919,-9.659303,-1.832827
59.805519,-0.192890,-9.547370,-1.848539
59.838569,-0.302279,-9.471650,-1.860361
59.871720,-0.325623,-9.469256,-1.908696
59.904667,-0.212643,-9.557845,-1.958677
59.938934,-0.152337,-9.676212,-2.038736
59.972182,-0.045491,-9.595405,-1.950297
60.005467,-0.023045,-9.658105,-1.910492
60.038877,-0.007482,-9.618450,-1.863055
60.071273,-0.046539,-9.590766,-1.768929
60.105311,-0.150990,-9.622341,-1.684531
60.138795,-0.239129,-9.499933,-1.668220
60.172137,-0.149493,-9.610070,-1.897473
60.205473,-0.020950,-9.695965,-2.112809
60.238822,0.031874,-9.702250,-2.131664
60.272154,0.131237,-9.644189,-1.964363
60.305469,0.154880,-9.656010,-1.807836
60.338787,0.107294,-9.674566,-1.646222
60.371409,-0.029180,-9.643440,-1.619137
60.405438,-0.183612,-9.623837,-1.725533
60.438773,-0.371414,-9.563082,-2.039184
60.471560,-0.431570,-9.510258,-2.227136
60.505542,-0.544551,-9.487512,-2.201098
60.538841,-0.502501,-9.438130,-2.032151
60.572236,-0.363632,-9.681450,-2.184637
60.605644,-0.138569,-9.845758,-2.391294
60.638906,-0.184809,-9.849499,-2.209478
60.672213,-0.291953,-9.719309,-2.081084
60.705521,-0.336547,-9.561735,-2.093355
60.738827,-0.217132,-9.542282,-2.265295
60.772226,-0.107444,-9.601840,-2.270532
60.805561,-0.058211,-9.655711,-2.053550
60.838896,-0.060456,-9.535548,-1.975137
60.872178,-0.283274,-9.483173,-1.906002
60.905586,-0.339241,-9.369594,-1.730471
60.938952,-0.263372,-9.537044,-2.001025
60.972071,-0.040404,-9.740858,-2.280708
61.005575,0.067938,-9.696414,-2.394586
61.038841,-0.021399,-9.699108,-2.203941
61.072232,-0.054919,-9.552158,-1.761746
61.105524,-0.160118,-9.699257,-1.811578
61.138705,-0.249754,-9.626381,-1.981123
61.171951,-0.318739,-9.410746,-1.986360
61.205553,-0.299585,-9.568769,-2.173863
61.238881,-0.287763,-9.621593,-2.193317
61.272247,-0.398200,-9.531807,-1.933387
61.305563,-0.312155,-9.663642,-2.289537
61.338869,-0.263521,-9.578944,-2.449505
61.372220,-0.280132,-9.558443,-1.965710
61.405566,-0.237783,-9.599745,-2.020329
61.438853,-0.159220,-9.572210,-1.883556
61.472007,-0.141413,-9.661847,-1.992496
61.505568,-0.098166,-9.702250,-1.938774
61.538475,-0.083501,-9.681150,-1.873530
61.572254,0.110137,-9.786948,-2.197207
61.605556,0.058810,-9.644787,-2.291931
61.638513,-0.171491,-9.494546,-1.527406
61.672115,-0.085296,-9.834983,-1.733763
61.705507,-0.062401,-9.884366,-2.315126
61.738808,-0.194985,-9.665737,-2.211274
61.772155,-0.453268,-9.246138,-1.841356
61.805469,-0.428278,-9.286692,-2.092457
61.838817,-0.395806,-9.382463,-2.162490
61.872207,-0.465539,-9.354181,-1.917375
61.905117,-0.350015,-9.654364,-1.929347
61.938872,-0.155329,-10.013807,-1.941019
61.972121,-0.061653,-9.934346,-1.951344
62.005478,-0.071829,-9.627429,-2.337423
62.038813,-0.056415,-9.338169,-2.443969
62.072135,-0.180320,-9.092904,-1.931741
62.105537,-0.294797,-9.585080,-1.394523
62.138849,-0.275792,-9.606778,-1.257749
62.172183,-0.061204,-9.851594,-2.358522
62.205487,-0.006435,-9.937638,-2.759865
62.238856,-0.056565,-9.784404,-2.178801
62.272126,0.031724,-9.913845,-1.853926
62.305483,0.119116,-9.883019,-2.107122
62.338943,0.048185,-9.676661,-2.026614
62.371435,-0.217132,-9.178051,-1.801851
62.405444,-0.303326,-9.307043,-1.756808
62.438784,-0.177477,-9.665139,-2.008508
62.472110,-0.111185,-9.780663,-2.172516
62.505136,-0.185557,-9.595255,-2.009705
62.538801,-0.184809,-9.595704,-1.941168
62.572159,-0.133482,-9.790539,-1.999679
62.605548,-0.110736,-9.663044,-2.146179
62.638393,-0.072427,-9.622640,-2.209628
62.672160,-0.196481,-9.494097,-1.896575
62.705546,-0.262623,-9.474344,-1.684082
62.738908,-0.257087,-9.534800,-1.855423
62.772166,-0.175980,-9.576849,-2.105776
62.805415,-0.205160,-9.606778,-2.102483
62.838884,-0.233443,-9.573408,-1.980524
62.872162,-0.215187,-9.654664,-1.835820
62.905568,-0.237783,-9.651820,-1.757856
62.938850,-0.266514,-9.641046,-1.864401
62.972220,-0.377848,-9.473296,-1.910492
63.005509,-0.345526,-9.565776,-1.956432
63.038405,-0.215935,-9.757768,-2.108319
63.072181,-0.324426,-9.622490,-1.996686
63.105515,-0.412266,-9.485417,-1.863354
63.138928,-0.474218,-9.445164,-1.981422
63.172161,-0.405233,-9.549465,-1.734212
63.205580,-0.312305,-9.607676,-2.002821
63.238882,-0.263671,-9.601391,-2.057890
63.271993,-0.278336,-9.592113,-1.764440
63.305581,-0.196930,-9.821964,-1.819209
63.338391,-0.170743,-9.713773,-2.103681
63.372141,-0.307666,-9.505320,-1.926503
63.405537,-0.418851,-9.455190,-1.753217
63.438896,-0.385031,-9.534051,-1.856171
63.471759,-0.266215,-9.655412,-2.198853
63.505368,-0.219077,-9.559042,-2.077493
63.538862,-0.183313,-9.618600,-2.031553
63.572210,-0.158322,-9.743252,-1.775214
63.605508,-0.144106,-9.683245,-1.970798
63.638854,-0.129142,-9.644638,-2.100239
63.672249,-0.171042,-9.663343,-1.999230
63.705547,-0.199474,-9.676063,-2.184937
63.738841,-0.204113,-9.640597,-2.287292
63.772128,-0.183013,-9.598697,-2.117448
63.805480,-0.225213,-9.575802,-2.061930
63.838505,-0.214588,-9.603186,-2.017935
63.872168,-0.249156,-9.497090,-1.945957
63.905510,-0.215187,-9.579543,-2.049360
63.938876,-0.163709,-9.647181,-2.156205
63.972148,-0.146351,-9.637604,-2.194364
64.004970,-0.178973,-9.640896,-2.152315
64.038827,-0.196481,-9.570564,-2.021676
64.071628,-0.066741,-9.663343,-2.097844
64.105480,-0.074373,-9.670227,-1.949698
64.138817,-0.128244,-9.657058,-1.914233
64.172226,-0.130938,-9.616804,-2.213219
64.204644,-0.135577,-9.593609,-2.167129
64.238581,-0.172688,-9.536595,-2.107272
64.272139,-0.225961,-9.489907,-1.925007
64.305477,-0.263372,-9.591814,-1.895228
64.338899,-0.170892,-9.697761,-2.180896
64.372121,-0.117619,-9.736967,-2.160844
64.404740,-0.151139,-9.549614,-2.009705
64.438846,-0.208902,-9.555750,-1.901962
64.471347,-0.199773,-9.603037,-1.927700
64.504708,-0.181816,-9.660799,-1.952840
64.538794,-0.121809,-9.734423,-2.137649
64.572122,-0.156078,-9.660200,-2.259758
64.605492,-0.213989,-9.543778,-2.152913
64.638819,-0.213540,-9.573856,-1.974239
64.672161,-0.151139,-9.577598,-2.044272
64.704689,-0.143657,-9.615756,-1.905404
64.738298,-0.084848,-9.580890,-2.055645
64.772210,-0.090534,-9.603785,-1.919919
64.805515,-0.122258,-9.674117,-1.965261
64.838947,-0.172838,-9.635360,-2.093954
64.872199,-0.155180,-9.588073,-2.114754
64.905562,-0.191393,-9.593609,-2.030954
64.938873,-0.253346,-9.554553,-1.895677
64.972172,-0.221023,-9.571761,-1.876223
65.005509,-0.123455,-9.678906,-2.063576
65.038902,-0.101608,-9.687735,-2.145132
65.071513,-0.096071,-9.606479,-2.056992
65.105496,-0.109239,-9.626231,-1.927551
65.138848,-0.128843,-9.524923,-1.897323
65.172212,-0.128094,-9.595106,-1.906002
65.205552,-0.138270,-9.561735,-1.911689
65.238927,-0.124204,-9.562184,-2.057591
65.271620,-0.112980,-9.654664,-1.999529
65.305513,-0.134828,-9.675913,-2.008208
65.338153,-0.075121,-9.631619,-2.022873
65.372203,-0.057164,-9.629673,-1.904356
65.405601,-0.066142,-9.622341,-1.960323
65.438868,-0.037860,-9.611417,-1.804993
65.472240,-0.107294,-9.619647,-1.948202
65.505310,-0.154432,-9.479731,-2.022275
65.538036,-0.215935,-9.553954,-1.933985
65.572212,-0.235239,-9.632965,-1.849138
65.605538,-0.170892,-9.651820,-2.220402
65.638891,-0.155329,-9.526420,-2.212770
65.672236,-0.216533,-9.514897,-1.814271
65.705566,-0.224015,-9.708984,-1.753217
65.738976,-0.135128,-9.689530,-2.150220
65.772144,-0.131536,-9.650174,-2.145581
65.805517,-0.176130,-9.590467,-2.052802
65.838892,-0.145154,-9.657208,-2.049211
65.872217,-0.185857,-9.517890,-1.985313
65.905572,-0.168199,-9.497987,-1.846744
65.938808,-0.174933,-9.596602,-1.883107
65.972139,-0.124054,-9.708984,-2.009705
66.005474,-0.104301,-9.684293,-2.147227
66.038825,-0.135277,-9.656459,-2.130916
66.071373,-0.140664,-9.588970,-2.062978
66.105503,-0.157574,-9.584182,-1.943563
66.138904,-0.160567,-9.607077,-1.900615
66.172174,-0.115225,-9.641794,-2.015092
66.205543,-0.150840,-9.496491,-2.102783
66.238818,-0.236735,-9.487812,-1.895378
66.272205,-0.219377,-9.561735,-1.972144
66.305548,-0.158921,-9.608574,-2.251378
66.338815,-0.137522,-9.671873,-1.794967
66.372209,-0.120762,-9.837078,-1.909145
66.405493,0.029330,-9.886012,-2.316922
66.438772,-0.058959,-9.690728,-2.193616
66.471940,-0.170593,-9.563681,-2.091859
66.505476,-0.173287,-9.483472,-2.038436
66.538380,-0.224015,-9.534351,-1.800803
66.572126,-0.214438,-9.467610,-1.869789
66.605472,-0.200222,-9.499484,-2.084676
66.638785,-0.179871,-9.577598,-2.045469
66.672161,-0.165206,-9.593460,-1.974389
66.705547,-0.122408,-9.668281,-2.087669
66.738836,-0.111334,-9.664390,-2.031104
66.772212,-0.109688,-9.703896,-2.112210
66.805583,-0.150242,-9.674267,-1.983817
66.838872,-0.181667,-9.661697,-2.152913
66.872185,-0.183013,-9.555450,-2.070161
66.905503,-0.209051,-9.549914,-1.928299
66.938183,-0.238082,-9.575054,-2.030954
66.971673,-0.266364,-9.489757,-2.022125
67.004978,-0.249904,-9.479132,-2.111312
67.038368,-0.221322,-9.501729,-1.889093
67.071676,-0.201120,-9.621293,-1.631258
67.105036,-0.107893,-9.808946,-2.034246
67.138366,-0.070931,-9.736219,-2.258411
67.172223,-0.142161,-9.637904,-2.153661
67.205539,-0.165804,-9.610669,-2.180447
67.238960,-0.176878,-9.622640,-2.049809
67.272193,-0.163260,-9.631469,-1.974090
67.305512,-0.159819,-9.547370,-2.163238
67.338887,-0.139168,-9.549165,-2.061930
67.372255,-0.139467,-9.583733,-2.061481
67.405362,-0.099812,-9.592263,-1.958677
67.438864,-0.076168,-9.687136,-1.950596
67.472201,-0.040104,-9.671124,-1.957479
67.505549,-0.105798,-9.626830,-2.014942
67.537928,-0.188999,-9.563531,-1.948052
67.572122,-0.227757,-9.572959,-2.067168
67.605546,-0.142011,-9.688633,-2.223245
67.638898,-0.132733,-9.659901,-2.221898
67.671230,-0.098315,-9.542282,-2.111013
67.705471,-0.114178,-9.577747,-1.638740
67.738378,-0.105798,-9.646583,-1.681837
67.772161,-0.004639,-9.675464,-1.934135
67.805474,-0.024242,-9.700305,-2.017187
67.838912,-0.089337,-9.635360,-2.029757
67.871641,-0.095921,-9.628626,-2.100089
67.905050,-0.107743,-9.545873,-2.043973
67.938882,-0.106546,-9.576700,-1.940270
67.972185,-0.070332,-9.600343,-1.919171
68.005616,-0.047586,-9.607526,-1.905853
68.038846,-0.018107,-9.616954,-1.971396
68.072247,-0.004340,-9.606179,-1.994292
68.105552,-0.003591,-9.656010,-1.929347
68.138865,-0.085596,-9.545424,-1.828338
68.171828,-0.182564,-9.549914,-1.932190
68.205602,-0.048634,-9.649426,-2.331587
68.238515,-0.000299,-9.723799,-2.201697
68.272222,-0.029480,-9.707188,-1.969451
68.304656,-0.025888,-9.654364,-1.860361
68.338138,-0.046389,-9.659752,-1.945209
68.372156,-0.090384,-9.585978,-1.912886
68.405549,-0.108641,-9.600044,-2.132562
68.438927,-0.109838,-9.561885,-2.240005
68.471507,-0.151888,-9.532854,-1.806789
68.505508,-0.162812,-9.546771,-1.667471
68.538332,-0.141862,-9.681001,-1.918423
68.571651,-0.045491,-9.607526,-2.308991
68.605497,-0.056415,-9.574904,-2.063876
68.638955,-0.074522,-9.585529,-1.835820
68.671607,-0.025589,-9.691177,-1.911539
68.705510,-0.049233,-9.577897,-1.935033
68.738838,-0.110137,-9.548417,-1.924408
68.772131,-0.095472,-9.557545,-2.040232
68.805516,-0.069734,-9.652419,-2.024220
68.838496,-0.023045,-9.586426,-1.951344
68.871177,-0.021848,-9.559042,-1.948501
68.905589,0.005387,-9.665438,-1.850634
68.938560,-0.049233,-9.736518,-1.933237
68.971776,-0.123605,-9.536296,-2.141690
69.005145,-0.154581,-9.516543,-2.068963
69.038525,-0.157275,-9.607825,-2.164136
69.071884,-0.104600,-9.625633,-1.931591
69.105213,-0.113579,-9.687286,-1.873380
69.138479,-0.014366,-9.678756,-2.181495
69.171449,-0.027684,-9.628775,-2.081234
69.205554,-0.136474,-9.526120,-1.941917
69.238870,-0.146500,-9.511306,-1.977980
69.272186,-0.134679,-9.618899,-1.877720
69.305498,-0.221771,-9.586426,-1.892684
69.338835,-0.231348,-9.538391,-2.213369
69.372138,-0.170443,-9.592861,-2.358672
69.405451,-0.182564,-9.595255,-2.153212
69.438908,-0.093676,-9.672022,-1.994740
69.472173,0.057613,-9.708834,-2.097844
69.505453,-0.014964,-9.532854,-1.992346
69.538802,-0.111035,-9.517740,-1.736756
69.572119,-0.112980,-9.558593,-2.041130
69.605467,-0.083650,-9.640747,-2.198704
69.638791,-0.145453,-9.579693,-2.113407
69.672119,-0.109239,-9.662295,-2.293129
69.705462,-0.006285,-9.580291,-2.594958
69.738459,-0.042499,-9.398475,-2.208730
69.771685,-0.181367,-9.553056,-1.713711
69.805545,-0.117320,-9.563681,-1.865299
69.838915,0.005537,-9.710480,-2.185685
69.872105,-0.051477,-9.512503,-2.225939
69.905543,-0.105049,-9.549016,-2.156056
69.938945,-0.082154,-9.777520,-2.152015
69.971608,-0.036663,-9.804307,-2.273974
70.005537,-0.064945,-9.642543,-2.272777
70.038853,-0.137672,-9.481227,-2.286245
70.072214,-0.163859,-9.515047,-2.090961
70.105498,-0.140664,-9.495294,-2.090362
70.138809,-0.103703,-9.458482,-2.033947
70.172108,-0.062850,-9.610968,-1.973790
70.205490,-0.001048,-9.740708,-2.238658
70.238830,0.009727,-9.710480,-2.467163
70.272174,-0.128543,-9.422717,-2.150220
70.305572,-0.152935,-9.535997,-1.838064
70.338834,-0.077665,-9.691925,-1.904955
70.372360,0.010026,-9.727091,-2.206934
70.405503,-0.058810,-9.577598,-2.205138
70.438946,-0.105947,-9.514598,-2.270532
70.472210,-0.094724,-9.534051,-2.240604
70.505582,-0.059857,-9.587474,-2.081533
70.538083,0.009128,-9.699557,-2.036192
70.572126,0.031575,-9.642094,-2.158749
70.605501,-0.019454,-9.545574,-2.112061
70.638844,-0.061354,-9.513401,-2.146179
70.672181,-0.057014,-9.568619,-2.077643
70.705533,-0.039506,-9.590616,-2.087818
70.738934,-0.076617,-9.558892,-1.964513
70.772147,-0.017359,-9.631768,-2.034994
70.805462,0.034268,-9.685939,-2.270682
70.838829,-0.002544,-9.644039,-2.018534
70.872188,-0.097418,-9.541983,-2.051156
70.905463,-0.112531,-9.585229,-2.116251
70.938806,-0.076318,-9.571163,-2.212471
70.972128,-0.082753,-9.511455,-2.171020
71.005472,-0.076019,-9.550063,-1.767882
71.038790,-0.040254,-9.676811,-1.844200
71.072132,0.054171,-9.688184,-2.110265
71.105462,-0.038907,-9.578046,-2.145281
71.138809,-0.039655,-9.577897,-2.099939
71.171686,-0.038458,-9.704944,-2.055196
71.205469,-0.067639,-9.593011,-2.023322
71.238805,-0.078712,-9.484669,-2.039633
71.272148,-0.049233,-9.571313,-2.148723
71.305499,-0.012570,-9.601241,-2.056543
71.338827,-0.007183,-9.613661,-1.985313
71.372151,-0.025439,-9.571313,-1.838813
71.405471,0.019005,-9.660500,-2.020629
71.438811,0.083650,-9.684592,-2.176257
71.471456,0.083201,-9.613961,-1.975287
71.505295,0.060007,-9.662595,-1.852430
71.537829,0.058810,-9.665588,-1.939223
71.572155,-0.016910,-9.577149,-2.016139
71.605488,-0.119116,-9.471351,-1.930843
71.638792,-0.221172,-9.430947,-1.916926
71.672143,-0.134828,-9.585080,-2.076296
71.705461,0.008679,-9.635659,-2.417183
71.738815,0.046838,-9.580291,-2.294924
71.771703,-0.138420,-9.618600,-1.918872
71.805533,-0.141862,-9.569666,-1.931142
71.838808,-0.071978,-9.562184,-2.069412
71.872158,0.045940,-9.674566,-1.944012
71.905493,0.059857,-9.757917,-1.977382
71.938198,0.019304,-9.733226,-2.016588
71.972124,-0.036812,-9.596303,-2.047714
72.005477,-0.009577,-9.566524,-2.065073
72.038891,-0.008530,-9.577747,-2.039184
72.072118,-0.134828,-9.445463,-1.697101
72.105464,-0.184510,-9.401917,-1.777309
72.138801,-0.182115,-9.444565,-1.972294
72.172114,-0.059708,-9.569816,-2.233870
72.205464,-0.017808,-9.734872,-2.371691
72.238812,0.031275,-9.719309,-2.387404
72.272104,0.050879,-9.768692,-2.235516
72.305481,0.176279,-9.901126,-2.470006
72.338865,0.194985,-9.819720,-2.455641
72.372135,-0.074971,-9.333231,-1.443157
72.405150,-0.178374,-9.450251,-1.343494
72.438486,-0.078413,-9.505470,-1.595044
72.472130,-0.104151,-9.554253,-1.745735
72.505463,-0.097418,-9.522529,-1.852580
72.538802,-0.075719,-9.510258,-2.222497
72.571910,0.025290,-9.561436,-2.388451
72.605561,-0.005537,-9.591215,-2.223245
72.638787,0.157574,-9.678158,-1.965410
72.671437,0.348818,-9.718561,-2.175958
72.705583,0.262474,-9.684592,-2.011650
72.738791,0.064197,-9.557845,-1.658493
72.772120,-0.151588,-9.472399,-1.853328
72.805480,-0.159968,-9.639699,-2.293129
72.838823,-0.090085,-9.628177,-2.685193
72.871427,-0.128843,-9.621742,-2.548419
72.905549,-0.110287,-9.565626,-2.303005
72.938966,-0.023943,-9.599146,-2.289687
72.972190,0.156078,-9.726043,-2.381867
73.005604,0.133930,-9.665737,-2.111312
73.038954,0.085446,-9.616355,-1.990850
73.072197,-0.089038,-9.514598,-1.947753
73.105628,-0.209650,-9.479132,-1.984565
73.138921,-0.223866,-9.468957,-2.208431
73.172200,-0.136923,-9.501878,-2.255867
73.205517,-0.035615,-9.592562,-2.293727
73.238685,0.142161,-9.630122,-2.345354
73.271922,0.286566,-9.773779,-2.128372
73.305545,0.247958,-9.719459,-1.973342
73.338945,0.214289,-9.678008,-1.860511
73.372199,0.159220,-9.528215,-1.974239
73.405611,0.081705,-9.489757,-1.984714
73.438988,-0.045940,-9.494097,-2.191072
73.472208,-0.150242,-9.422268,-2.231176
73.505613,-0.093976,-9.519237,-2.137350
73.538981,-0.016910,-9.687884,-1.914233
73.572201,0.234341,-9.953501,-2.206036
73.605534,0.470627,-10.056754,-2.765851
73.638871,0.257087,-9.742205,-2.823164
73.672198,-0.215785,-9.262300,-1.198790
73.705355,-0.290607,-9.306295,-1.259545
73.738957,-0.139318,-9.669478,-2.226537
73.772237,-0.115824,-9.457734,-2.124930
73.805516,-0.264419,-9.547370,-1.914233
73.838905,-0.089038,-9.745647,-2.007909
73.872272,0.028432,-9.770038,-2.318119
73.905500,-0.000898,-9.799817,-1.945658
73.938864,-0.079311,-9.660949,-1.608512
73.972189,-0.163260,-9.681450,-1.964363
74.005541,-0.219077,-9.593609,-2.062229
74.038896,-0.311108,-9.490206,-2.007161
74.072213,-0.258134,-9.495144,-2.346701
74.105516,-0.186305,-9.518788,-2.178502
74.138901,-0.245564,-9.423465,-1.785989
74.172260,-0.074223,-9.620246,-1.779704
74.205624,-0.151888,-9.599296,-1.950596
74.238976,-0.161315,-9.576700,-1.713262
74.272214,0.074073,-9.776323,-2.156505
74.305511,0.213989,-9.947814,-2.255718
74.338924,0.038458,-9.618001,-1.860211
74.372429,-0.200522,-9.246138,-1.653704
74.405572,-0.144106,-9.252124,-1.770725
74.438857,-0.057313,-9.311832,-2.000726
74.472244,-0.027983,-9.674267,-1.869789
74.505289,-0.091581,-9.872693,-1.405147
74.538904,-0.204263,-9.886161,-1.645923
74.572225,-0.200372,-9.679654,-2.127324
74.605028,-0.251101,-9.501729,-2.415985
74.638804,-0.139916,-9.602139,-2.477489
74.671596,0.029929,-9.776623,-1.968403
74.704929,0.085147,-9.798919,-1.725383
74.738271,0.118068,-9.775126,-1.833725
74.771531,0.147548,-9.765250,-2.050258
74.805477,-0.016311,-9.540037,-1.892684
74.838331,-0.175082,-9.387102,-1.549403
74.872153,-0.107593,-9.550213,-1.940719
74.905546,-0.023644,-9.705243,-2.196908
74.938886,-0.033819,-9.704495,-2.047116
74.972157,-0.047138,-9.659452,-1.968703
75.005487,-0.082753,-9.634163,-1.961669
75.038827,-0.129740,-9.531507,-1.819060
75.072171,-0.125401,-9.536146,-1.902710
75.105478,0.004340,-9.700754,-1.866496
75.138823,-0.007632,-9.779316,-1.777758
75.172162,-0.033071,-9.712127,-1.869190
75.205482,-0.150840,-9.525821,-1.923810
75.238823,-0.193638,-9.505021,-1.801851
75.272277,-0.189747,-9.549764,-1.920368
75.305551,-0.127945,-9.553056,-1.751720
75.338848,-0.090235,-9.740259,-1.759651
75.372157,0.023793,-9.695067,-2.032451
75.405547,-0.035016,-9.674566,-1.870836
75.438440,-0.144106,-9.592711,-1.643528
75.472242,-0.209051,-9.625483,-1.645773
75.505475,-0.185408,-9.512802,-2.055346
75.538825,-0.144555,-9.530460,-1.932339
75.572252,-0.153983,-9.715119,-1.761896
75.605507,-0.090983,-9.794729,-1.918423
75.638870,-0.082453,-9.750285,-2.024968
75.672175,-0.153983,-9.577298,-1.915879
75.705506,-0.144405,-9.543629,-1.932339
75.738834,-0.144555,-9.536895,-1.869938
75.772236,-0.100261,-9.636856,-1.756808
75.805546,-0.076019,-9.673968,-1.805891
75.838831,-0.009876,-9.751932,-1.874727
75.872236,-0.021698,-9.745198,-2.033199
75.905468,-0.117470,-9.692673,-2.025118
75.938817,-0.175382,-9.547669,-1.811129
75.972150,-0.205609,-9.574605,-1.899418
76.005551,-0.115375,-9.620395,-2.053999
76.038824,-0.135277,-9.560987,-1.960472
76.072181,-0.147698,-9.531807,-1.826093
76.105483,-0.102356,-9.656759,-1.839112
76.138819,-0.060905,-9.734124,-1.814870
76.172157,-0.013468,-9.787098,-1.955085
76.205489,-0.021698,-9.727091,-2.044871
76.238864,-0.113280,-9.670227,-1.979776
76.272119,-0.167750,-9.620545,-1.903608
76.305490,-0.154432,-9.529562,-2.025567
76.338933,-0.127945,-9.511306,-1.926952
76.372162,-0.110586,-9.613811,-1.716405
76.405471,-0.056715,-9.614859,-1.796015
76.438825,-0.037710,-9.598697,-1.983368
76.472224,-0.017359,-9.597201,-1.858715
76.505258,-0.043845,-9.719010,-1.922313
76.538818,-0.024841,-9.658554,-1.825195
76.572181,-0.022746,-9.764651,-2.007610
76.605529,0.043696,-9.726941,-2.192269
76.638817,0.038159,-9.594956,-2.106524
76.672141,-0.146500,-9.537942,-1.626619
76.705321,-0.197978,-9.537044,-1.680790
76.738503,-0.165655,-9.594358,-1.845397
76.771730,-0.040853,-9.759114,-2.137201
76.805579,0.028582,-9.707039,-2.405510
76.838863,0.010475,-9.580740,-2.294475
76.872197,-0.135427,-9.620096,-1.732716
76.905491,-0.106546,-9.705243,-1.790628
76.938814,-0.062401,-9.676512,-1.994890
76.972179,-0.090235,-9.526120,-2.097994
77.005496,-0.085296,-9.576550,-1.918872
77.038835,-0.063449,-9.662744,-1.865898
77.072166,-0.075270,-9.634462,-1.967206
77.105519,-0.130339,-9.487662,-1.968703
77.138879,-0.101608,-9.564130,-1.960921
77.172201,-0.006884,-9.676661,-1.982021
77.205572,-0.014366,-9.688333,-1.924408
77.238824,0.044594,-9.745796,-1.868292
77.272147,0.072278,-9.675464,-2.096947
77.305559,0.042050,-9.593909,-2.021527
77.338870,-0.047736,-9.556348,-1.747979
77.372147,-0.064496,-9.628626,-1.722989
77.405524,-0.024242,-9.656759,-1.955085
77.438864,-0.049831,-9.641345,-2.014643
77.472170,-0.064496,-9.605281,-2.091111
77.505564,-0.067639,-9.658704,-1.930843
77.538541,0.010176,-9.731430,-1.941468
77.572239,0.005537,-9.672621,-2.073153
77.604995,-0.056565,-9.598697,-1.923062
77.638792,-0.120313,-9.588671,-1.800205
77.672176,-0.116721,-9.517441,-1.970798
77.705510,-0.089786,-9.559491,-1.985612
77.737878,-0.048784,-9.658854,-1.860211
77.772166,0.035765,-9.736818,-2.032451
77.805547,0.018406,-9.623089,-2.054897
77.838809,-0.040553,-9.548118,-1.818760
77.872151,0.013917,-9.614559,-1.844649
77.905500,0.094275,-9.673070,-2.014942
77.938882,0.022297,-9.602738,-1.963615
77.972172,-0.040404,-9.502626,-1.784642
78.005512,-0.064945,-9.542581,-2.009405
78.038887,0.006584,-9.599745,-2.072704
78.072219,0.081855,-9.657058,-1.997284
78.105502,0.135577,-9.786948,-1.853926
78.138808,0.157125,-9.783656,-1.927401
78.172177,0.164458,-9.716765,-1.967206
78.205494,0.131536,-9.609621,-2.000577
78.238847,0.112980,-9.583883,-1.960622
78.272142,0.098615,-9.567721,-2.031104
78.305505,0.058211,-9.574156,-1.866048
78.338903,0.027534,-9.578944,-1.815169
78.372219,0.042499,-9.549016,-2.023173
78.405579,0.080658,-9.623089,-1.941019
78.438885,0.083800,-9.730982,-1.794069
78.472263,0.122707,-9.715419,-1.979627
78.505581,0.112382,-9.702998,-1.931591
78.538891,0.088289,-9.664540,-1.981572
78.572179,0.031126,-9.532256,-1.980375
78.605513,-0.022446,-9.493947,-1.933985
78.638818,0.002993,-9.517740,-1.765936
78.672166,0.070781,-9.604384,-1.876822
78.705138,0.147398,-9.640148,-1.920667
78.738810,0.141113,-9.653018,-1.990251
78.772092,0.105947,-9.630721,-1.867544
78.805494,0.106995,-9.731580,-1.930993
78.838915,0.145004,-9.650474,-1.964213
78.872282,0.101458,-9.651671,-1.966608
78.905513,0.078114,-9.678008,-1.828038
78.938815,0.013169,-9.727689,-1.923660
78.972165,0.039506,-9.576849,-2.163238
79.005503,0.004190,-9.495593,-2.232673
79.038821,-0.031275,-9.494396,-1.896425
79.072183,-0.010475,-9.575353,-1.828188
79.105535,0.055518,-9.602438,-1.972294
79.138879,0.075869,-9.607676,-1.881910
79.172189,0.097118,-9.731131,-1.967805
79.205507,0.088589,-9.742504,-2.153512
79.238834,0.059408,-9.667832,-2.096797
79.272222,0.013618,-9.554553,-2.081533
79.305509,0.014366,-9.578196,-1.958976
79.338839,0.039955,-9.613512,-2.032151
79.372148,0.103104,-9.622041,-2.008358
79.405523,0.111035,-9.629973,-1.964962
79.438835,0.078413,-9.626082,-1.932190
79.472148,0.083800,-9.646284,-2.008508
79.505496,0.038758,-9.572809,-2.000726
79.538856,0.048634,-9.640597,-1.996536
79.572184,0.020202,-9.577747,-2.079738
79.605510,0.007931,-9.602588,-1.942216
79.638697,0.033370,-9.694768,-1.932489
79.672147,0.088888,-9.688483,-2.139146
79.705273,0.082902,-9.603785,-2.123733
79.738810,0.029480,-9.461325,-2.078092
79.772234,0.000449,-9.523277,-1.779704
79.805257,0.014815,-9.610968,-1.784193
79.838788,0.046689,-9.607526,-2.014194
79.872179,0.064197,-9.633115,-2.063726
79.905528,0.067788,-9.642692,-2.093804
79.938826,0.116871,-9.728138,-2.146478
79.972154,0.084698,-9.622341,-2.078391
80.005516,0.025589,-9.538391,-1.880114
80.038816,0.030527,-9.544227,-1.884454
80.072147,0.075719,-9.601091,-2.117597
80.105524,0.080957,-9.563531,-2.107721
80.138849,0.085745,-9.590766,-1.974239
80.172182,0.110586,-9.668132,-2.095600
80.205486,0.100710,-9.603785,-1.974239
80.238843,0.069734,-9.535099,-1.896874
80.272196,0.135876,-9.648977,-1.930993
80.305674,0.104002,-9.673818,-2.024220
80.338875,0.096520,-9.695217,-2.149471
80.372283,0.090684,-9.619946,-2.232972
80.405817,0.136325,-9.704046,-2.113108
80.438859,0.108790,-9.602139,-2.088118
80.472230,0.057762,-9.593160,-1.942964
80.505971,0.056266,-9.578795,-2.087369
80.538919,0.068088,-9.553655,-2.136602
80.571851,0.084399,-9.539289,-2.034097
80.605712,0.110287,-9.641495,-1.952242
80.638835,0.131985,-9.645236,-2.053401
80.672161,0.126149,-9.636557,-2.061631
80.705806,0.086643,-9.579094,-2.008059
80.738839,0.095323,-9.617103,-2.016888
80.772174,0.102505,-9.659901,-2.023771
80.805510,0.087242,-9.591664,-2.030655
80.838824,0.027534,-9.556049,-2.083179
80.872201,0.052225,-9.529412,-2.114754
80.905216,0.052824,-9.575054,-2.053999
80.938823,0.062850,-9.597201,-1.906002
80.972198,0.113280,-9.685490,-1.978280
81.005566,0.143508,-9.735172,-2.020479
81.038892,0.102056,-9.656160,-2.099341
81.072227,0.091581,-9.637604,-2.088118
81.105495,0.021998,-9.506667,-2.074351
81.138825,-0.012271,-9.525971,-1.993244
81.172265,0.058211,-9.595405,-2.030356
81.205484,0.110885,-9.622640,-2.043075
81.238642,0.070631,-9.569816,-1.937577
81.271914,0.073924,-9.600044,-1.938924
81.305522,0.110287,-9.638652,-2.066719
81.338877,0.160268,-9.737865,-2.027213
81.372181,0.128094,-9.672172,-2.074051
81.405498,0.059408,-9.553056,-2.029158
81.438823,0.024093,-9.584032,-1.938475
81.472208,0.054620,-9.548268,-2.051455
81.505514,0.081555,-9.553954,-2.109068
81.538820,0.102206,-9.645236,-1.968254
81.572214,0.123605,-9.669778,-1.963615
81.605567,0.132883,-9.634911,-1.960622
81.638823,0.118816,-9.638502,-1.999679
81.672221,0.074373,-9.611118,-1.972593
81.705534,0.066292,-9.608873,-2.021377
81.738825,0.058211,-9.608723,-2.100987
81.772226,0.064795,-9.657208,-2.090961
81.805527,0.070033,-9.650324,-2.131065
81.838818,0.041002,-9.582985,-2.073752
81.872161,0.040404,-9.551859,-1.923810
81.905585,0.066591,-9.581488,-1.884005
81.938949,0.072577,-9.602289,-1.921715
81.972040,0.054021,-9.581937,-1.959125
82.005478,0.063598,-9.617403,-2.018683
82.038896,0.118068,-9.686538,-2.093804
82.072214,0.103852,-9.663493,-2.063726
82.105521,0.083201,-9.611566,-1.961370
82.138820,0.080358,-9.586277,-1.976783
82.172225,0.039057,-9.539439,-1.977532
82.205302,0.038159,-9.523427,-1.879665
82.238841,0.074821,-9.620545,-2.053401
82.272250,0.111185,-9.650923,-2.065821
82.305493,0.129890,-9.648828,-2.020030
82.338815,0.159669,-9.654364,-2.036491
82.372230,0.155030,-9.687286,-2.014044
82.405495,0.159968,-9.709134,-1.909743
82.438894,0.078413,-9.570714,-2.031253
82.472195,-0.010924,-9.505021,-2.127025
82.505543,-0.062401,-9.480030,-2.115053
82.538829,-0.005088,-9.607825,-2.069263
82.572247,0.106246,-9.601091,-2.105177
82.605561,0.199923,-9.660051,-2.018234
82.638899,0.226709,-9.780663,-1.863803
82.672194,0.250203,-9.681450,-1.979627
82.705602,0.174933,-9.604384,-1.987558
82.738845,0.085296,-9.537493,-1.958228
82.772184,0.026337,-9.519835,-2.082581
82.805614,0.030078,-9.551260,-2.134806
82.838828,0.051028,-9.530011,-2.122087
82.872164,0.109838,-9.575802,-2.059087
82.905537,0.152486,-9.648678,-1.941318
82.938818,0.235388,-9.721404,-1.963914
82.972198,0.244068,-9.681300,-2.005515
83.005618,0.224015,-9.709433,-2.006862
83.038808,0.130788,-9.631918,-2.116999
83.072179,0.103403,-9.608424,-2.095301
83.105222,0.029779,-9.549764,-2.110863
83.138832,-0.008679,-9.495144,-2.055645
83.172148,0.014815,-9.488410,-2.028410
83.205551,0.129890,-9.623987,-2.130916
83.238833,0.220723,-9.652718,-2.141391
83.272271,0.215336,-9.688782,-1.947902
83.305493,0.216833,-9.683545,-2.022574
83.338815,0.146201,-9.577298,-2.062678
83.372253,0.003292,-9.465066,-1.934434
83.405497,-0.001048,-9.506367,-1.974988
83.438858,0.093976,-9.644039,-2.184488
83.471423,0.124054,-9.628775,-2.120291
83.505492,0.161914,-9.646733,-2.095600
83.538861,0.186904,-9.667084,-1.997284
83.572187,0.184061,-9.610070,-1.937128
83.605607,0.144256,-9.586726,-1.966458
83.638824,0.084099,-9.505021,-2.042177
83.672151,0.097268,-9.524624,-2.035443
83.705562,0.129142,-9.602289,-2.141241
83.738903,0.204263,-9.644937,-2.203043
83.772291,0.199773,-9.658554,-2.091709
83.805489,0.162063,-9.611566,-1.855722
83.838880,0.147099,-9.682647,-2.036790
83.872185,0.123306,-9.609023,-2.172816
83.905569,0.080508,-9.575951,-2.242699
83.938852,0.161465,-9.643889,-2.214716
83.972145,0.198277,-9.713473,-2.098443
84.005483,0.166702,-9.635958,-2.019581
84.038724,0.186754,-9.572959,-1.944760
84.071994,0.228654,-9.592711,-1.991748
84.105343,0.259331,-9.613213,-1.963315
84.138665,0.201120,-9.605132,-1.945658
84.172015,0.120912,-9.534351,-2.004168
84.205288,0.132584,-9.577448,-2.055047
84.238623,0.221023,-9.726043,-2.119842
84.272009,0.268310,-9.750435,-2.069562
84.305366,0.220873,-9.675464,-2.000577
84.338681,0.211296,-9.606778,-1.983817
84.372052,0.167600,-9.551410,-1.968553
84.405330,0.131985,-9.557096,-1.936080
84.438738,0.120463,-9.515945,-1.982170
84.472007,0.109539,-9.505170,-1.977532
84.505337,0.127047,-9.570564,-1.919470
84.538883,0.139767,-9.640148,-1.982320
84.572186,0.144256,-9.587474,-2.048612
84.605482,0.196182,-9.640148,-1.989802
84.638882,0.153534,-9.556947,-1.969451
84.672184,0.148446,-9.608274,-1.950745
84.705503,0.142909,-9.644338,-2.013147
84.738285,0.162662,-9.666934,-2.036790
84.772238,0.144256,-9.639550,-1.982919
84.805507,0.135876,-9.646733,-1.971396
84.838820,0.180020,-9.680103,-1.958527
84.872222,0.206956,-9.683395,-1.920817
84.905561,0.140814,-9.591514,-1.865748
84.938900,0.099064,-9.529562,-1.803497
84.972220,0.100710,-9.574455,-1.818012
85.005517,0.120313,-9.623388,-1.855124
85.038896,0.138719,-9.688782,-1.887746
85.072224,0.142759,-9.662744,-1.959125
85.105499,0.102954,-9.613512,-1.933237
85.138823,0.104451,-9.604234,-1.865599
85.172222,0.086793,-9.629224,-1.809483
85.205513,0.138120,-9.633714,-1.892385
85.238797,0.187652,-9.664540,-2.029308
85.272150,0.143508,-9.674716,-1.959724
85.305501,0.139018,-9.644937,-1.927401
85.338731,0.088589,-9.640597,-1.954786
85.372144,0.093527,-9.646882,-1.942066
85.405490,0.088439,-9.583284,-1.977382
85.438901,0.106995,-9.625932,-1.921266
85.472204,0.106546,-9.648828,-1.862157
85.505579,0.142161,-9.661398,-1.994441
85.538811,0.110885,-9.621742,-1.938924
85.572157,0.050729,-9.612464,-1.897772
85.605550,0.097418,-9.609771,-2.035294
85.638817,0.122408,-9.657208,-2.014344
85.672165,0.135427,-9.684592,-1.976634
85.705544,0.136624,-9.615607,-1.964812
85.738884,0.091432,-9.614410,-1.916926
85.772179,0.092180,-9.628326,-1.896575
85.805494,0.080957,-9.604234,-1.946256
85.837871,0.084698,-9.622191,-1.927102
85.872217,0.109539,-9.638053,-1.978729
85.905522,0.127346,-9.677409,-1.962567
85.938844,0.138270,-9.691326,-1.970798
85.972247,0.125401,-9.620395,-1.989204
86.005545,0.080059,-9.627429,-1.864401
86.038205,0.088888,-9.613961,-1.852131
86.071526,0.077365,-9.613063,-1.940270
86.104882,0.044145,-9.519237,-1.962268
86.138219,0.023494,-9.567123,-1.920817
86.171530,0.074223,-9.605132,-1.942814
86.204853,0.137672,-9.716765,-1.997284
86.238204,0.154282,-9.699257,-1.962567
86.272189,0.140814,-9.693870,-1.946256
86.305494,0.121061,-9.630571,-1.905404
86.338850,0.068985,-9.559640,-1.937427
86.372158,0.080358,-9.582985,-1.912736
86.405495,0.116273,-9.603635,-1.976783
86.438730,0.122707,-9.591065,-1.961969
86.472158,0.065244,-9.572809,-1.907948
86.505504,0.074971,-9.595106,-1.929795
86.538867,0.140515,-9.716167,-1.943263
86.572195,0.154432,-9.732927,-1.946555
86.605558,0.153683,-9.718711,-1.994441
86.638887,0.149044,-9.718262,-1.972294
86.672237,0.132584,-9.676661,-1.994890
86.705503,0.098315,-9.596004,-1.938774
86.738877,0.077515,-9.557096,-1.843751
86.772243,0.073175,-9.571761,-1.806639
86.805502,0.083501,-9.619498,-1.869340
86.838890,0.103403,-9.646284,-1.931442
86.872265,0.145603,-9.621742,-2.018534
86.905526,0.160118,-9.705991,-1.950446
86.937855,0.140814,-9.610968,-1.898670
86.972206,0.171940,-9.696713,-1.841506
87.005572,0.176579,-9.679953,-1.919320
87.038850,0.133781,-9.635958,-1.970947
87.072140,0.090085,-9.590317,-1.909743
87.105492,0.060007,-9.596602,-1.857518
87.138908,0.088140,-9.609621,-1.948950
87.172139,0.131536,-9.653317,-1.884603
87.205493,0.137372,-9.626980,-1.871884
87.238900,0.152187,-9.626830,-1.748877
87.272139,0.166403,-9.638203,-1.804694
87.305497,0.193937,-9.669628,-1.830582
87.338884,0.185557,-9.685939,-1.852280
87.372139,0.136774,-9.666785,-1.865150
87.404851,0.074522,-9.550811,-1.856470
87.438815,0.103553,-9.594806,-1.800953
87.472139,0.175382,-9.635958,-1.888045
87.505439,0.240327,-9.606479,-1.868741
87.538866,0.158771,-9.656609,-1.624973
87.572161,0.092479,-9.650474,-1.596092
87.605492,0.037710,-9.680851,-1.819209
87.638818,0.022596,-9.655262,-2.061032
87.672253,-0.065693,-9.594358,-2.025717
87.705487,-0.123605,-9.647032,-1.796164
87.738849,0.007183,-9.554852,-2.077792
87.772156,0.074821,-9.624286,-2.143037
87.805524,0.241075,-9.619797,-1.976933
87.838873,0.455363,-9.834834,-1.860511
87.872186,0.411518,-9.937788,-1.550600
87.905578,0.206208,-9.725145,-1.541472
87.938842,0.099513,-9.611566,-2.029607
87.972143,0.035914,-9.598548,-2.101137
88.005035,-0.060306,-9.516244,-1.876971
88.038884,-0.057762,-9.592263,-1.916028
88.071698,0.001048,-9.607676,-2.016289
88.105037,0.060456,-9.624286,-2.077044
88.138399,0.017957,-9.638203,-1.968852
88.171700,-0.006135,-9.576700,-1.889691
88.205031,-0.020501,-9.642543,-1.793620
88.238875,-0.073624,-9.606778,-1.773119
88.272172,-0.055069,-9.555151,-1.818162
88.305513,-0.004489,-9.575802,-1.923660
88.338907,-0.015713,-9.578795,-1.670015
88.372189,-0.070033,-9.554852,-1.651011
88.405509,0.035765,-9.745048,-1.867694
88.438844,-0.042499,-9.857280,-1.822352
88.472241,0.014665,-9.706739,-2.026914
88.505488,-0.004340,-9.775126,-2.216212
88.538857,-0.001048,-9.576101,-2.180148
88.572184,0.086045,-9.586127,-2.299713
88.605500,0.262773,-9.816278,-2.251977
88.638892,0.326222,-9.631319,-1.980524
88.672022,0.272500,-9.511605,-1.725682
88.705486,0.168947,-9.530909,-1.689768
88.738829,0.068985,-9.552757,-1.727029
88.772240,-0.072726,-9.601690,-1.831929
88.805487,-0.222818,-9.465365,-2.194364
88.839140,-0.235538,-9.510258,-2.134058
88.872189,-0.205011,-9.573707,-2.188079
88.905487,-0.014216,-9.760760,-2.158600
88.938898,0.034568,-9.715868,-2.144683
88.972270,0.036663,-9.744898,-1.974539
89.005490,0.026188,-9.645236,-1.926054
89.038827,-0.046090,-9.590616,-1.933985
89.072234,-0.111933,-9.550961,-1.763841
89.105488,-0.237633,-9.443966,-1.762195
89.138828,-0.288961,-9.446061,-1.966009
89.171927,-0.245265,-9.498736,-2.069562
89.205485,-0.182714,-9.626231,-2.138847
89.238827,-0.074522,-9.759863,-2.070909
89.272271,-0.024990,-9.784105,-2.046218
89.305484,0.008829,-9.756570,-1.971396
89.338897,-0.032772,-9.664091,-1.950745
89.372250,-0.036962,-9.602588,-1.993543
89.405538,-0.030677,-9.573856,-1.968703
89.438829,-0.031425,-9.615008,-1.943114
89.471485,-0.067938,-9.538391,-1.964213
89.504690,-0.052824,-9.581189,-1.892085
89.538828,-0.074971,-9.606179,-1.888793
89.572306,-0.017209,-9.693122,-1.989204
89.605494,-0.022446,-9.719309,-1.931890
89.638824,-0.043995,-9.647780,-1.950147
89.671862,-0.059408,-9.647032,-2.026016
89.705485,-0.025888,-9.603037,-1.967206
89.738826,-0.008380,-9.588073,-1.929047
89.772016,0.000748,-9.578645,-1.871584
89.805478,0.032173,-9.633863,-1.828487
89.838819,0.046389,-9.616056,-1.951344
89.872264,0.013767,-9.634013,-1.972144
89.905512,0.012720,-9.606778,-1.963914
89.938851,-0.009577,-9.642393,-2.012548
89.972233,-0.043696,-9.530310,-1.860810
90.005550,-0.012720,-9.683844,-1.881161
90.038966,0.066741,-9.713922,-1.930993
90.072215,0.092180,-9.716317,-1.938475
90.105489,0.045641,-9.670975,-1.954187
90.138894,-0.027983,-9.636706,-1.886549
90.171611,-0.035465,-9.566075,-1.893881
90.205480,0.009727,-9.557845,-2.009555
90.238822,0.056266,-9.615158,-1.969451
90.272056,0.033670,-9.618001,-1.845696
90.305515,-0.011223,-9.596004,-1.753067
90.338893,-0.025739,-9.572659,-1.748877
90.372156,-0.004489,-9.635060,-1.848240
90.405543,-0.022147,-9.603037,-1.963764
90.438884,-0.024541,-9.640448,-1.972893
90.472180,0.011223,-9.693571,-2.008208
90.505481,0.053123,-9.647930,-1.988755
90.538951,0.033670,-9.678457,-1.898670
90.572142,0.027983,-9.648828,-1.835969
90.605488,0.007482,-9.590766,-1.877121
90.638853,-0.004190,-9.581189,-1.895527
90.672142,-0.019753,-9.582386,-1.972593
90.705489,0.008979,-9.600643,-1.860511
90.738916,0.005986,-9.697162,-1.954636
90.771911,0.070033,-9.766597,-2.014044
90.805484,0.041152,-9.625633,-2.074949
90.838598,0.008530,-9.638801,-1.940121
90.872198,-0.018256,-9.617702,-1.851831
90.905632,-0.008081,-9.593310,-1.977532
90.938852,0.026936,-9.605880,-2.009405
90.972140,0.032473,-9.601241,-1.945957
91.005531,0.026038,-9.598248,-1.901214
91.038816,0.032473,-9.600942,-1.841356
91.072156,0.031425,-9.625633,-1.843152
91.105563,0.047736,-9.667234,-1.901513
91.138896,0.059259,-9.644638,-1.855273
91.172195,0.039655,-9.695666,-2.010154
91.205483,-0.000599,-9.631319,-1.938175
91.238921,-0.020202,-9.643740,-1.959724
91.271818,0.036812,-9.672172,-2.027063
91.305523,0.068237,-9.657806,-1.915130
91.338929,0.107893,-9.653167,-1.818611
91.372197,0.151888,-9.649426,-1.957030
91.405504,0.152785,-9.644338,-1.911838
91.438827,0.067489,-9.574754,-1.989653
91.472235,-0.162063,-9.394435,-1.833725
91.505551,-0.230899,-9.362561,-1.807088
91.537961,-0.177177,-9.561885,-1.840010
91.572175,-0.079011,-9.709583,-1.934135
91.605505,-0.031575,-9.752530,-2.085125
91.638862,0.039506,-9.809394,-2.109666
91.672130,0.092928,-9.784254,-2.021527
91.705505,0.123455,-9.748939,-2.054448
91.738908,0.089337,-9.695067,-2.029757
91.772174,0.063898,-9.542731,-1.924558
91.805553,0.038458,-9.574305,-1.769079
91.838950,0.060007,-9.631469,-1.877570
91.872228,0.010924,-9.579393,-1.925157
91.905542,-0.049233,-9.546173,-1.897024
91.938948,-0.070931,-9.504721,-1.960023
91.971824,-0.051627,-9.547669,-2.011351
92.005456,0.049681,-9.619797,-1.880413
92.038820,0.145603,-9.714670,-1.955384
92.072231,0.244816,-9.745647,-2.011201
92.105530,0.290158,-9.864762,-1.954636
92.138897,0.277438,-9.764801,-1.888644
92.172159,0.190645,-9.666934,-1.862007
92.205519,0.150391,-9.578944,-1.772371
92.238940,0.104002,-9.514747,-1.858416
92.272198,0.103852,-9.591365,-1.898370
92.305497,0.036064,-9.579244,-1.900316
92.338823,0.072427,-9.559042,-1.897323
92.372160,0.120912,-9.642991,-1.918722
92.405537,0.165056,-9.708685,-1.890140
92.438855,0.143807,-9.684143,-1.780601
92.472140,0.139916,-9.688483,-1.814121
92.505548,0.068387,-9.640148,-2.006712
92.539105,0.037560,-9.589270,-1.939522
92.572151,0.022446,-9.600493,-1.894629
92.605488,0.062102,-9.620395,-1.895826
92.638799,0.081855,-9.632367,-1.907499
92.672160,0.097567,-9.609920,-1.936380
92.705516,0.138120,-9.674716,-1.944610
92.738844,0.172089,-9.730682,-1.854525
92.772183,0.157424,-9.669179,-1.966009
92.805563,0.134828,-9.623538,-1.895826
92.838899,0.073026,-9.549165,-1.717003
92.872149,0.076468,-9.640597,-1.674954
92.905489,0.085296,-9.652868,-1.876523
92.938845,0.082004,-9.644338,-2.038586
92.972149,0.074821,-9.635509,-1.977382
93.005471,0.092629,-9.636108,-1.947902
93.038703,0.098764,-9.646134,-1.863055
93.072148,0.126897,-9.661847,-1.807537
93.105501,0.114926,-9.628027,-1.863653
93.138851,0.099513,-9.562184,-1.823998
93.172228,0.066292,-9.562633,-1.730172
93.205476,0.081705,-9.615756,-1.733913
93.238957,0.059708,-9.617103,-1.792423
93.272181,0.069883,-9.604683,-1.878019
93.305478,0.078862,-9.686987,-2.007460
93.338831,0.093078,-9.711678,-1.998930
93.372153,0.114327,-9.692972,-1.936230
93.405484,0.120463,-9.683096,-1.851532
93.438878,0.093976,-9.647930,-1.800205
93.472228,0.118368,-9.581039,-1.804245
93.505591,0.080209,-9.571462,-1.882359
93.538943,0.065544,-9.540486,-1.787934
93.572216,0.070482,-9.626231,-1.822801
93.605548,0.118966,-9.677409,-1.860361
93.638886,0.113429,-9.694768,-1.973042
93.672290,0.105798,-9.709882,-1.978130
93.705502,0.104750,-9.684143,-1.942066
93.738836,0.145004,-9.660200,-1.928000
93.772160,0.125401,-9.632965,-1.885351
93.805561,0.077365,-9.561436,-1.797212
93.838824,0.065993,-9.518489,-1.920667
93.872150,0.043845,-9.549315,-1.873829
93.905557,0.096520,-9.689381,-1.835371
93.938828,0.133332,-9.697013,-1.971247
93.972189,0.140215,-9.700454,-2.001774
94.005476,0.171940,-9.737267,-1.927401
94.038825,0.160866,-9.747143,-1.971396
94.072243,0.100261,-9.634312,-1.858715
94.105479,0.042948,-9.512204,-1.865150
94.138825,0.061952,-9.597949,-1.910342
94.172021,0.036064,-9.631020,-1.763692
94.205486,0.002993,-9.545424,-1.982320
94.238877,0.096071,-9.573707,-1.992346
94.272233,0.123904,-9.669628,-1.841506
94.305486,0.226559,-9.787996,-1.862007
94.338831,0.210398,-9.729036,-1.962418
94.372165,0.158622,-9.693421,-1.873530
94.405484,0.086045,-9.624286,-1.882059
94.438871,0.026038,-9.594806,-1.902261
94.472201,0.000299,-9.549016,-1.941917
94.505491,-0.008230,-9.528814,-1.953289
94.538824,0.027235,-9.600643,-1.960921
94.572269,0.097717,-9.652120,-1.897921
94.605492,0.136325,-9.676811,-1.758754
94.638852,0.220125,-9.736668,-1.781350
94.671940,0.254393,-9.840969,-1.861558
94.705483,0.191693,-9.767644,-1.893881
94.738919,0.123156,-9.614110,-1.928748
94.772241,0.099213,-9.534351,-1.949848
94.805520,0.052974,-9.586277,-1.861708
94.838853,0.064047,-9.549315,-1.848390
94.872244,0.068237,-9.583434,-1.893432
94.905564,0.091432,-9.593460,-1.843003
94.938826,0.102505,-9.659303,-1.904206
94.972221,0.136025,-9.625184,-1.843451
95.005534,0.161165,-9.738913,-1.865599
95.038821,0.229253,-9.761509,-1.973342
95.072197,0.235388,-9.742055,-1.931142
95.105557,0.181816,-9.666934,-1.688122
95.138874,0.109389,-9.560239,-1.737953
95.171794,0.070332,-9.543329,-1.827889
95.205551,0.087541,-9.508462,-1.968254
95.239005,0.088589,-9.608125,-1.879366
95.272084,0.118816,-9.632217,-1.842404
95.305555,0.156527,-9.663642,-1.809034
95.338461,0.212343,-9.722302,-1.816815
95.372180,0.237334,-9.763753,-1.785839
95.405554,0.186006,-9.752829,-1.787934
95.438897,0.169545,-9.683844,-1.885501
95.472224,0.129740,-9.621892,-1.928449
95.505640,0.113878,-9.525222,-1.818461
95.538896,0.109838,-9.518788,-1.806490
95.572205,0.140814,-9.548866,-1.713711
95.605552,0.220723,-9.630571,-1.747979
95.638868,0.187802,-9.621144,-1.775962
95.672020,0.147099,-9.627878,-1.756509
95.705482,0.119565,-9.650623,-1.774167
95.738843,0.206807,-9.762556,-1.852131
95.772226,0.229103,-9.769889,-1.893432
95.805486,0.169097,-9.745347,-1.900914
95.838897,0.119116,-9.625034,-1.896874
95.872137,0.111484,-9.601241,-1.841506
95.905484,0.121660,-9.614559,-1.727029
95.938815,0.170144,-9.601091,-1.831480
95.972169,0.196930,-9.626082,-1.882508
96.005481,0.185408,-9.657956,-1.764290
96.038815,0.190047,-9.672621,-1.771174
96.072173,0.183462,-9.698659,-1.829684
96.105489,0.156078,-9.694319,-1.817863
96.138895,0.090684,-9.567721,-1.863953
96.171929,0.087990,-9.628177,-1.813074
96.205476,0.110736,-9.631020,-1.849288
96.238863,0.114028,-9.632367,-1.904356
96.272150,0.132883,-9.596004,-1.861109
96.305419,0.156676,-9.644039,-1.834772
96.338913,0.188700,-9.709283,-1.821753
96.372228,0.168947,-9.619049,-1.749775
96.405483,0.123156,-9.622041,-1.834323
96.438827,0.173287,-9.649426,-1.806639
96.472193,0.146500,-9.704046,-1.884005
96.505502,0.181068,-9.742504,-2.019581
96.538905,0.182564,-9.731430,-1.916028
96.572147,0.131835,-9.602887,-1.741545
96.605544,0.146201,-9.666785,-1.710569
96.638991,0.116871,-9.634163,-1.743640
96.671705,0.124353,-9.573557,-1.969900
96.705526,0.105798,-9.627429,-1.981123
96.738884,0.085446,-9.562933,-1.875475
96.772154,0.184510,-9.687435,-1.760699
96.805590,0.231947,-9.734423,-1.748428
96.838877,0.209799,-9.710032,-1.760699
96.872149,0.166553,-9.654963,-1.868143
96.905566,0.150690,-9.621144,-1.799157
