time_tick,acc_X_value,acc_Y_value,acc_Z_value
0.009674,-0.166553,-6.744857,-7.287312
0.033055,-0.166702,-6.725702,-7.314398
0.066324,-0.312903,-6.622598,-7.243916
0.099712,-0.278486,-6.597309,-7.266362
0.132969,-0.348219,-6.508870,-7.194234
0.166406,-0.449827,-6.589976,-6.990570
0.199666,-0.213092,-7.075418,-6.996257
0.233007,-0.270106,-7.193486,-6.851851
0.266327,-0.227906,-7.092178,-6.944480
0.299685,-0.282077,-7.046387,-6.862775
0.332991,-0.393860,-6.886568,-6.816984
0.366463,-0.378597,-6.852599,-6.893452
0.399651,-0.366027,-6.820726,-6.949568
0.432997,-0.370366,-6.916796,-6.848110
0.466458,-0.313951,-6.958547,-6.771942
0.499664,-0.279832,-6.981592,-6.858735
0.533093,-0.291056,-7.016010,-6.808006
0.566457,-0.344777,-6.956302,-6.801721
0.599669,-0.328915,-6.996706,-6.763113
0.632992,-0.390718,-7.002392,-6.856789
0.666377,-0.396853,-7.012268,-6.875794
0.699701,-0.405083,-6.903777,-6.839730
0.733009,-0.431271,-6.859782,-6.950466
0.766376,-0.335649,-6.761317,-6.989523
0.799688,-0.154432,-6.948820,-7.109387
0.832976,-0.080508,-7.043694,-7.042496
0.866363,-0.197678,-7.012418,-6.791246
0.899783,-0.186455,-7.012717,-6.698168
0.933005,-0.210398,-7.163109,-6.753536
0.966304,-0.168348,-7.157422,-6.641304
0.999677,-0.185557,-7.182413,-6.604043
1.032987,-0.119265,-7.075567,-6.838084
1.066340,-0.225961,-7.045789,-6.823718
1.099723,-0.260977,-6.903328,-6.956152
1.133144,-0.396703,-6.800973,-6.939243
1.166459,-0.423490,-6.816685,-6.965730
1.199689,-0.473021,-6.979347,-6.925476
1.233037,-0.344628,-7.224911,-7.142458
1.266360,-0.234640,-7.153082,-7.201567
1.299693,-0.127346,-6.992216,-7.213987
1.332999,-0.324576,-6.797381,-6.956152
1.366382,-0.416157,-6.630080,-6.793191
1.399687,-0.458805,-6.686945,-6.670035
1.433105,-0.176279,-6.975307,-6.731688
1.466423,-0.150990,-7.130935,-6.707446
1.499646,-0.170593,-7.249303,-6.627836
1.533056,-0.247958,-7.215633,-6.733633
1.566345,-0.299884,-7.074969,-6.869509
1.599723,-0.324426,-6.980694,-6.955255
1.633138,-0.398649,-6.881780,-6.944181
1.666357,-0.417055,-6.944630,-6.915001
1.699647,-0.371115,-6.944780,-6.927271
1.733048,-0.355252,-7.048781,-6.755032
1.766455,-0.224764,-7.144852,-6.800075
1.799701,-0.199175,-7.154429,-6.744557
1.833031,-0.145303,-7.064195,-6.914402
1.866345,-0.246462,-7.008527,-6.843022
1.899665,-0.313951,-6.966627,-6.899587
1.933007,-0.427829,-6.851253,-6.944929
1.966454,-0.462846,-6.848559,-6.969022
1.999685,-0.402988,-6.839730,-6.992067
2.033088,-0.222968,-6.934305,-7.051176
2.066390,-0.139018,-7.119862,-6.891806
2.099677,-0.125550,-7.086940,-6.902730
2.133008,-0.294946,-6.885521,-6.746353
2.166323,-0.324127,-6.861728,-6.840329
2.199686,-0.252897,-6.961390,-6.846015
2.233009,-0.233892,-7.106394,-6.789749
2.266424,-0.263521,-7.056563,-6.822372
2.299627,-0.304972,-7.116420,-6.877291
2.332999,-0.305870,-6.919939,-6.979197
2.366338,-0.358395,-6.785410,-6.882528
2.399691,-0.372012,-6.853797,-6.785110
2.433020,-0.314400,-7.110883,-6.711785
2.466330,-0.304823,-7.122406,-6.790498
2.499632,-0.262623,-7.161163,-6.863523
2.533004,-0.218479,-7.024539,-7.014513
2.566354,-0.194835,-6.999698,-7.104897
2.599665,-0.279832,-6.928020,-6.936549
2.633001,-0.361088,-6.934155,-6.793042
2.666347,-0.247210,-6.981292,-6.857687
2.699661,-0.295844,-7.018404,-6.687992
2.733013,-0.160717,-7.063147,-6.811597
2.766363,-0.165655,-7.117019,-6.764460
2.799694,-0.254094,-7.112679,-6.805013
2.832990,-0.374407,-6.880882,-6.884623
2.865991,-0.398499,-6.893153,-6.853647
2.899665,-0.329364,-6.971416,-6.928768
2.932998,-0.444290,-7.009276,-6.787654
2.966332,-0.384283,-7.009425,-6.820726
2.999625,-0.332507,-6.942535,-6.954207
3.032995,-0.241673,-6.987128,-6.994311
3.066339,-0.278635,-6.953309,-6.916497
3.099646,-0.313352,-6.958098,-6.909015
3.133014,-0.332058,-6.963485,-6.894799
3.166440,-0.298089,-6.976354,-6.861428
3.199651,-0.274744,-6.958247,-6.922034
3.233046,-0.336098,-6.941038,-6.892404
3.266327,-0.313951,-6.881331,-6.966478
3.299459,-0.342832,-6.902730,-6.936699
3.332998,-0.347172,-6.830602,-6.988924
3.366340,-0.367224,-6.824766,-7.004637
3.399626,-0.321583,-6.818631,-7.094123
3.432994,-0.290008,-6.880134,-6.975606
3.466354,-0.222669,-6.924428,-6.925027
3.499627,-0.236735,-6.951364,-6.879086
3.533009,-0.272201,-6.909164,-6.874447
3.566353,-0.257236,-6.955703,-6.824916
3.599662,-0.235388,-6.966029,-6.931012
3.632989,-0.314849,-6.880732,-7.043694
3.666343,-0.383834,-6.897941,-7.045040
3.699642,-0.406430,-6.921585,-7.031423
3.733013,-0.381440,-6.853946,-7.071677
3.766343,-0.406131,-6.779723,-7.080955
3.799625,-0.406430,-6.789001,-7.022295
3.833021,-0.374556,-6.801721,-7.042047
3.866348,-0.360191,-6.867564,-6.961390
3.899643,-0.289409,-6.942086,-6.941936
3.933073,-0.237483,-6.965580,-7.024689
3.966349,-0.168648,-6.933257,-7.008378
3.999365,-0.214139,-6.922183,-6.913205
4.033062,-0.182115,-6.931461,-6.949568
4.066406,-0.229103,-6.919789,-6.931012
4.099798,-0.288961,-6.858884,-6.905274
4.133136,-0.257984,-6.838683,-6.929965
4.166302,-0.280132,-6.915300,-6.881181
4.199696,-0.240027,-6.872053,-6.949269
4.233021,-0.250502,-6.916796,-6.885671
4.266371,-0.181068,-6.975456,-6.911858
4.299671,-0.235538,-6.878338,-6.972164
4.332993,-0.272799,-6.892554,-6.888813
4.366371,-0.223267,-6.935502,-6.888214
4.399661,-0.233593,-6.967376,-6.858884
4.433061,-0.208602,-6.948970,-6.865618
4.466307,-0.246911,-6.926523,-6.986530
4.499671,-0.253794,-6.884623,-6.992216
4.532998,-0.258733,-6.852749,-7.105646
4.566384,-0.226859,-6.872203,-7.109237
4.599655,-0.200372,-6.872801,-7.024390
4.633006,-0.156676,-6.870257,-6.957948
4.666357,-0.135277,-6.899288,-6.911559
4.699625,-0.125999,-6.902281,-6.923081
4.733017,-0.114327,-6.898390,-7.000896
4.766421,-0.186006,-6.833894,-7.000746
4.799624,-0.182714,-6.778825,-7.088137
4.833061,-0.165056,-6.806809,-7.022743
4.866419,-0.156527,-6.889561,-7.027233
4.899738,-0.167450,-6.835241,-7.032171
4.933134,-0.143807,-6.900485,-6.961839
4.966348,-0.110885,-6.915449,-6.976504
4.999613,-0.197080,-6.799177,-7.084995
5.032524,-0.176728,-6.831649,-7.071826
5.066400,-0.192890,-6.817433,-7.073173
5.099712,-0.163560,-6.827310,-7.082002
5.132997,-0.195134,-6.787355,-7.011670
5.166349,-0.191244,-6.796932,-7.004188
5.199728,-0.227757,-6.825215,-6.994012
5.233013,-0.199624,-6.797830,-7.083798
5.266333,-0.230749,-6.773738,-7.096817
5.299707,-0.187503,-6.790198,-7.075717
5.332998,-0.231049,-6.770146,-7.059107
5.366370,-0.222818,-6.775683,-7.081104
5.399705,-0.200671,-6.810251,-7.145002
5.433035,-0.145603,-6.825514,-7.156375
5.466328,-0.198427,-6.802918,-7.103251
5.499692,-0.196182,-6.752039,-7.104897
5.532251,-0.189149,-6.710888,-7.084995
5.566332,-0.230151,-6.772690,-7.013017
5.599706,-0.191244,-6.714180,-7.100857
5.633019,-0.168648,-6.812645,-7.001494
5.666348,-0.093976,-6.882229,-7.078111
5.699644,-0.171341,-6.803068,-7.142308
5.733137,-0.189598,-6.792293,-7.164605
5.766341,-0.196481,-6.825065,-7.151287
5.799655,-0.196032,-6.797381,-7.188997
5.833034,-0.176429,-6.739769,-7.151736
5.866344,-0.245414,-6.723009,-7.031872
5.899342,-0.253944,-6.753835,-6.984435
5.933015,-0.205460,-6.781968,-7.011221
5.966338,-0.157424,-6.801871,-7.092327
5.999625,-0.135277,-6.854096,-7.101156
6.032060,-0.115973,-6.842274,-7.188997
6.066346,-0.176130,-6.843322,-7.067337
6.099653,-0.216084,-6.808305,-7.041000
6.132932,-0.188400,-6.823269,-7.041599
6.166306,-0.235538,-6.792443,-7.043394
6.199631,-0.201270,-6.798578,-7.041449
6.233089,-0.167600,-6.823269,-7.008378
6.266336,-0.192142,-6.871754,-7.037558
6.299657,-0.209500,-6.836288,-6.889561
6.333062,-0.153683,-6.912307,-6.961839
6.366349,-0.130040,-6.932958,-7.040701
6.399676,-0.226110,-6.816386,-7.026036
6.432976,-0.198427,-6.851851,-7.029028
6.466371,-0.177327,-6.887766,-6.981592
6.499625,-0.145752,-6.906471,-6.982789
6.532847,-0.186754,-6.893602,-6.932060
6.566373,-0.231049,-6.910062,-6.863673
6.599709,-0.200970,-6.906621,-6.939542
6.633042,-0.193638,-6.919041,-6.977252
6.666401,-0.160567,-6.916647,-7.050278
6.699667,-0.212044,-6.930264,-6.910511
6.733068,-0.191244,-6.919490,-6.961390
6.766373,-0.231049,-6.901233,-6.878488
6.799635,-0.208004,-6.872352,-6.935502
6.832985,-0.222669,-6.846165,-6.940590
6.866353,-0.244068,-6.842573,-6.846614
6.899707,-0.201270,-6.910960,-6.890010
6.933004,-0.166104,-6.910511,-6.932658
6.966328,-0.151738,-6.949867,-6.907518
6.999678,-0.190944,-6.936400,-6.976055
7.033003,-0.150840,-6.956901,-6.988775
7.066328,-0.225362,-6.906920,-6.979497
7.099636,-0.264120,-6.824766,-6.988026
7.133072,-0.219377,-6.903179,-7.007480
7.166331,-0.155928,-6.885072,-7.054468
7.199555,-0.174035,-6.860830,-7.013166
7.233028,-0.190047,-6.866516,-7.070929
7.266421,-0.212643,-6.891806,-6.856341
7.299632,-0.151439,-6.896894,-6.939093
7.333066,-0.172538,-6.859333,-6.974558
7.366480,-0.186754,-6.901383,-6.879535
7.399683,-0.177177,-6.812944,-7.116270
7.433056,-0.193937,-6.782866,-7.152035
7.466424,-0.211745,-6.772690,-7.107441
7.499641,-0.235837,-6.799027,-6.995808
7.533077,-0.208752,-6.844668,-7.058508
7.566400,-0.194536,-6.807557,-7.102952
7.599625,-0.105947,-6.764310,-7.170291
7.633069,-0.148895,-6.853198,-7.164755
7.666345,-0.169246,-6.772391,-7.075567
7.699648,-0.251251,-6.765058,-6.964832
7.733077,-0.179572,-6.798728,-7.025437
7.766354,-0.220574,-6.779424,-7.063895
7.799635,-0.233742,-6.780023,-7.132731
7.833007,-0.196631,-6.821025,-7.119114
7.866350,-0.185857,-6.822521,-7.108938
7.899646,-0.177776,-6.814441,-7.072575
7.932996,-0.246612,-6.756229,-7.114624
7.966414,-0.317842,-6.745605,-6.972314
7.999664,-0.344179,-6.699515,-7.015710
8.032931,-0.313352,-6.715676,-7.051475
8.066481,-0.208902,-6.780023,-7.223265
8.099675,-0.193488,-6.840179,-7.220871
8.133002,-0.178075,-6.815937,-7.106244
8.165845,-0.236436,-6.805013,-7.033368
8.199685,-0.236436,-6.752189,-7.039055
8.233021,-0.292702,-6.746952,-7.001494
8.266391,-0.254992,-6.719567,-7.074221
8.299727,-0.212044,-6.698617,-7.145750
8.332984,-0.206058,-6.821773,-7.223564
8.366295,-0.218778,-6.755780,-7.196329
8.399764,-0.264868,-6.752937,-7.205607
8.433013,-0.266065,-6.773588,-7.036511
8.466290,-0.277139,-6.663151,-7.152484
8.499735,-0.275044,-6.713432,-7.102503
8.533012,-0.246163,-6.727199,-7.115522
8.566296,-0.229852,-6.786308,-7.135574
8.599733,-0.194087,-6.767153,-7.175978
8.633012,-0.275642,-6.710139,-7.088437
8.666333,-0.266215,-6.712683,-7.071826
8.699730,-0.266664,-6.711337,-7.089784
8.733027,-0.269208,-6.721512,-7.137669
8.766368,-0.255740,-6.745006,-7.188548
8.799734,-0.250802,-6.728695,-7.243916
8.832303,-0.285818,-6.750693,-7.146797
8.866332,-0.228505,-6.802170,-7.177325
8.899733,-0.273996,-6.756529,-7.127045
8.933116,-0.298538,-6.716724,-7.072425
8.966304,-0.263222,-6.700263,-7.115073
8.999739,-0.221771,-6.688591,-7.069582
9.033023,-0.251400,-6.816386,-7.086940
9.066322,-0.288961,-6.733334,-7.087090
9.099742,-0.235987,-6.793939,-7.039204
9.133026,-0.178973,-6.852151,-7.101007
9.166296,-0.266514,-6.751740,-7.135724
9.199735,-0.256338,-6.739020,-7.185405
9.233026,-0.263521,-6.767004,-7.123304
9.266295,-0.236885,-6.771493,-7.083050
9.299668,-0.282975,-6.757427,-7.020798
9.332232,-0.252597,-6.785110,-7.033218
9.366303,-0.233144,-6.812346,-7.080356
9.399661,-0.237034,-6.772241,-7.100408
9.432967,-0.219975,-6.788253,-7.152634
9.466313,-0.208902,-6.799476,-7.089484
9.499665,-0.253495,-6.824616,-7.004188
9.533041,-0.232545,-6.791844,-7.034565
9.566304,-0.237932,-6.784512,-7.024689
9.599657,-0.230749,-6.787804,-7.070480
9.633076,-0.256189,-6.801571,-7.011820
9.666297,-0.160417,-6.822072,-7.083947
9.699736,-0.225512,-6.883127,-7.021247
9.733056,-0.240626,-6.778377,-7.000596
9.766330,-0.249904,-6.808156,-7.054917
9.799737,-0.232695,-6.861428,-7.040252
9.832756,-0.272350,-6.779125,-7.120909
9.866310,-0.304673,-6.749645,-7.114624
9.899740,-0.250353,-6.776730,-7.184358
9.932578,-0.250951,-6.779424,-7.076465
9.966121,-0.221920,-6.785260,-6.961988
9.999739,-0.216833,-6.798429,-6.953010
10.033022,-0.191393,-6.817882,-6.911110
10.066309,-0.183313,-6.840628,-7.011820
10.099747,-0.179123,-6.827609,-7.083199
10.133006,-0.209051,-6.809652,-7.090083
10.166300,-0.241224,-6.789151,-7.100558
10.199747,-0.261875,-6.789899,-7.110434
10.233010,-0.288063,-6.785859,-7.058957
10.265547,-0.246013,-6.792593,-7.095320
10.299758,-0.253495,-6.770445,-7.064494
10.333029,-0.241524,-6.803367,-7.010173
10.366299,-0.197828,-6.794089,-6.986829
10.399033,-0.226559,-6.819678,-7.049679
10.432423,-0.266364,-6.729294,-7.095021
10.466298,-0.254094,-6.728695,-7.141859
10.499736,-0.252897,-6.718669,-7.186004
10.532897,-0.323229,-6.683802,-7.108040
10.566129,-0.271303,-6.767602,-7.120311
10.599413,-0.221472,-6.811148,-7.101755
10.632987,-0.185258,-6.840179,-7.127194
10.666349,-0.180020,-6.744108,-7.184508
10.699674,-0.249006,-6.712534,-7.138417
10.733033,-0.246462,-6.734531,-7.088736
10.766290,-0.254842,-6.713731,-7.116270
10.799663,-0.269357,-6.728396,-7.056712
10.833016,-0.253046,-6.729443,-7.092327
10.866327,-0.247061,-6.715377,-7.144702
10.899741,-0.236436,-6.746652,-7.214586
10.932194,-0.265018,-6.804863,-7.054767
10.966298,-0.179272,-6.724206,-7.289407
10.998968,-0.274595,-6.685748,-7.187650
11.032875,-0.225362,-6.642351,-7.294794
11.066301,-0.256937,-6.661056,-7.126745
11.099727,-0.269507,-6.691434,-7.050128
11.132991,-0.279533,-6.659710,-7.079608
11.166371,-0.240327,-6.770445,-7.085145
11.199687,-0.192441,-6.797681,-7.237631
11.233045,-0.273098,-6.683353,-7.320683
11.266364,-0.278785,-6.625890,-7.277885
11.299687,-0.307516,-6.609579,-7.166401
11.333000,-0.313203,-6.715227,-7.123453
11.366299,-0.260678,-6.702059,-7.073921
11.399763,-0.243469,-6.702807,-7.096218
11.433064,-0.215785,-6.701759,-7.162809
11.466316,-0.233892,-6.691883,-7.158919
11.498729,-0.233593,-6.680959,-7.245711
11.533001,-0.228654,-6.722410,-7.229999
11.566317,-0.191244,-6.642501,-7.270253
11.599667,-0.251550,-6.677218,-7.152484
11.632999,-0.224464,-6.695624,-7.210845
11.666329,-0.249604,-6.676021,-7.147246
11.699680,-0.269956,-6.637862,-7.144553
11.733078,-0.253046,-6.651479,-7.109985
11.766300,-0.184360,-6.681707,-7.204111
11.799740,-0.220424,-6.736776,-7.162809
11.833013,-0.231797,-6.650581,-7.171339
11.866312,-0.296143,-6.641603,-7.133779
11.899770,-0.214289,-6.690536,-7.203662
11.933003,-0.277288,-6.655370,-7.211593
11.966340,-0.275942,-6.718669,-7.229400
11.998885,-0.243020,-6.710738,-7.245263
12.033019,-0.276839,-6.741115,-7.240025
12.065867,-0.280281,-6.674375,-7.216082
12.099775,-0.341186,-6.617061,-7.167299
12.133000,-0.349865,-6.647738,-7.127344
12.166311,-0.322780,-6.677218,-7.125847
12.199675,-0.266514,-6.682605,-7.245113
12.233064,-0.292402,-6.720315,-7.171938
12.266344,-0.264120,-6.713132,-7.214735
12.299755,-0.304523,-6.711636,-7.164904
12.333070,-0.294348,-6.706398,-7.128092
12.366308,-0.257536,-6.733484,-7.165653
12.399741,-0.290307,-6.701460,-7.123004
12.433006,-0.305571,-6.695325,-7.090532
12.466292,-0.283723,-6.692033,-7.149341
12.499662,-0.314101,-6.717173,-7.123004
12.533005,-0.261726,-6.645793,-7.145151
12.566312,-0.278186,-6.743510,-7.104449
12.599633,-0.212493,-6.795436,-7.130187
12.633021,-0.255740,-6.727049,-7.152035
12.665910,-0.276839,-6.736626,-7.140662
12.699099,-0.290307,-6.727498,-7.134227
12.732970,-0.276241,-6.715826,-7.138717
12.766302,-0.261726,-6.720315,-7.078560
12.799695,-0.262324,-6.739918,-7.084845
12.833001,-0.250502,-6.748448,-7.127942
12.866348,-0.282975,-6.740068,-7.122555
12.899686,-0.247360,-6.722111,-7.205607
12.933014,-0.229103,-6.722260,-7.182712
12.966323,-0.237633,-6.753087,-7.113577
12.999691,-0.256338,-6.780023,-7.039354
13.032901,-0.245564,-6.752937,-7.040252
13.066367,-0.244367,-6.733783,-7.089784
13.099716,-0.231947,-6.696372,-7.133330
13.133026,-0.269657,-6.622748,-7.107441
13.166379,-0.229253,-6.703106,-7.111332
13.199659,-0.196332,-6.747700,-7.100408
13.232522,-0.210997,-6.758624,-7.043095
13.266393,-0.179871,-6.762814,-7.110734
13.299671,-0.182415,-6.786158,-7.168645
13.332984,-0.199025,-6.726151,-7.249453
13.366353,-0.293300,-6.606736,-7.243766
13.399649,-0.309013,-6.625142,-7.181515
13.432991,-0.245115,-6.642800,-7.196778
13.466337,-0.207704,-6.697120,-7.104149
13.499671,-0.220723,-6.717173,-7.112978
13.533003,-0.204562,-6.753685,-7.112230
13.566326,-0.183462,-6.739170,-7.165802
13.599662,-0.200372,-6.692182,-7.246310
13.632995,-0.198427,-6.690536,-7.269056
13.666320,-0.246312,-6.655669,-7.237780
13.699709,-0.281628,-6.643548,-7.184358
13.732323,-0.296293,-6.654323,-7.149940
13.766329,-0.277139,-6.663002,-7.151586
13.799680,-0.223866,-6.670035,-7.213239
13.832983,-0.241973,-6.643848,-7.218028
13.866310,-0.209051,-6.702508,-7.201417
13.899715,-0.179572,-6.695474,-7.175230
13.933031,-0.234939,-6.733035,-7.168346
13.966322,-0.266364,-6.629931,-7.183011
13.999693,-0.299286,-6.638011,-7.148743
14.033024,-0.240327,-6.673327,-7.227904
14.066325,-0.260379,-6.636515,-7.272647
14.099713,-0.251699,-6.657465,-7.273545
14.133011,-0.271003,-6.663151,-7.178971
14.166374,-0.235688,-6.679762,-7.185405
14.199699,-0.246612,-6.667192,-7.080356
14.232169,-0.273996,-6.669287,-7.089484
14.265564,-0.252897,-6.695624,-7.159068
14.299642,-0.302728,-6.672878,-7.180467
14.332454,-0.242571,-6.673477,-7.306915
14.366324,-0.280132,-6.676619,-7.260825
14.399666,-0.286866,-6.653275,-7.243616
14.433005,-0.305721,-6.648935,-7.172985
14.466314,-0.294647,-6.666444,-7.136771
14.499634,-0.263671,-6.696372,-7.122256
14.533007,-0.250802,-6.709092,-7.117617
14.566302,-0.301231,-6.634719,-7.177624
14.599649,-0.272350,-6.624993,-7.264118
14.632994,-0.299436,-6.635916,-7.235985
14.666326,-0.274296,-6.631876,-7.179120
14.699636,-0.288362,-6.634121,-7.165054
14.733021,-0.228355,-6.699814,-7.158619
14.766318,-0.172538,-6.712534,-7.254241
14.799733,-0.227008,-6.648187,-7.242719
14.832345,-0.239129,-6.668239,-7.237631
14.866336,-0.216384,-6.646840,-7.207702
14.899729,-0.183911,-6.689938,-7.179420
14.932948,-0.204412,-6.705949,-7.145900
14.966332,-0.209799,-6.718819,-7.131235
14.999732,-0.205909,-6.681857,-7.204111
15.033064,-0.229702,-6.659111,-7.249602
15.066394,-0.225512,-6.688591,-7.242419
15.099736,-0.230001,-6.672729,-7.153980
15.133087,-0.210398,-6.695025,-7.177175
15.166332,-0.219526,-6.739469,-7.144254
15.199740,-0.214738,-6.732436,-7.167448
15.233015,-0.210847,-6.680959,-7.195731
15.266200,-0.263671,-6.671681,-7.125847
15.299646,-0.202617,-6.681408,-7.188997
15.332094,-0.216533,-6.737524,-7.078411
15.366335,-0.231947,-6.719567,-7.081254
15.399672,-0.216683,-6.712234,-7.112380
15.432549,-0.218329,-6.777628,-7.115971
15.465803,-0.179123,-6.793341,-7.205906
15.499658,-0.282227,-6.732885,-7.165952
15.532992,-0.297640,-6.736327,-7.083199
15.566313,-0.257984,-6.728246,-7.121657
15.599671,-0.271003,-6.766854,-7.062997
15.633004,-0.231498,-6.738721,-7.067187
15.666295,-0.232395,-6.746353,-7.042197
15.699734,-0.189598,-6.802619,-7.080206
15.733015,-0.194835,-6.802319,-7.082451
15.766327,-0.201868,-6.822821,-7.085145
15.799679,-0.207106,-6.816536,-7.089185
15.833034,-0.243020,-6.766405,-7.082900
15.866314,-0.270704,-6.752937,-7.072126
15.899733,-0.260079,-6.728396,-7.097565
15.932364,-0.248407,-6.754733,-7.075717
15.966325,-0.250652,-6.737674,-7.022743
15.999647,-0.215037,-6.774486,-7.046387
16.033078,-0.163709,-6.761018,-7.081852
16.066409,-0.239578,-6.754733,-7.040701
16.099691,-0.239878,-6.720614,-7.075717
16.133041,-0.266514,-6.739020,-7.074221
16.166297,-0.198427,-6.772690,-7.188249
16.199670,-0.259780,-6.696821,-7.180318
16.233067,-0.257685,-6.721812,-7.206804
16.266323,-0.253495,-6.679463,-7.174631
16.299667,-0.245564,-6.713731,-7.187351
16.333109,-0.236885,-6.726450,-7.131684
16.366383,-0.231348,-6.736626,-7.158320
16.399686,-0.244217,-6.768201,-7.109985
16.432203,-0.260977,-6.728845,-7.118964
16.466371,-0.203065,-6.671980,-7.148144
16.499657,-0.287614,-6.714778,-7.125698
16.532909,-0.241374,-6.673178,-7.222816
16.566418,-0.291953,-6.676320,-7.176427
16.599725,-0.314549,-6.684102,-7.141560
16.633013,-0.273847,-6.716873,-7.169094
16.666430,-0.306469,-6.717921,-7.095320
16.699698,-0.279084,-6.709541,-7.160565
16.733020,-0.246013,-6.731688,-7.120011
16.766376,-0.310210,-6.748747,-7.160714
16.799676,-0.327568,-6.640705,-7.181814
16.833000,-0.365727,-6.676470,-7.098612
16.866324,-0.257835,-6.755481,-7.182113
16.899656,-0.296443,-6.702358,-7.145750
16.932999,-0.279234,-6.761766,-7.133030
16.966413,-0.319188,-6.733484,-7.066888
16.999646,-0.276839,-6.727199,-7.156524
17.032774,-0.292702,-6.723308,-7.089035
17.066416,-0.295844,-6.704453,-7.156824
17.099653,-0.297341,-6.730341,-7.088287
17.132909,-0.294497,-6.726151,-7.112380
17.166418,-0.279234,-6.725852,-7.144403
17.199671,-0.283124,-6.737075,-7.135874
17.233075,-0.269507,-6.726301,-7.161313
17.266334,-0.267562,-6.715826,-7.122106
17.299665,-0.269507,-6.725253,-7.085893
17.332996,-0.202467,-6.751291,-7.137969
17.366335,-0.264120,-6.738422,-7.115073
17.399713,-0.261127,-6.719866,-7.094572
17.432992,-0.203814,-6.713432,-7.160714
17.466446,-0.300932,-6.754434,-7.131684
17.499728,-0.256338,-6.669736,-7.158470
17.532632,-0.281029,-6.661356,-7.091280
17.566331,-0.209051,-6.772989,-7.120011
17.599687,-0.172688,-6.774486,-7.210845
17.632993,-0.239878,-6.760719,-7.164306
17.666384,-0.237483,-6.730491,-7.194384
17.699411,-0.280880,-6.674375,-7.159068
17.732708,-0.244966,-6.692182,-7.124950
17.766349,-0.281778,-6.670185,-7.125099
17.799656,-0.278635,-6.708344,-7.130486
17.833062,-0.257236,-6.742612,-7.169543
17.866386,-0.225961,-6.787355,-7.199472
17.899633,-0.217880,-6.805163,-7.224013
17.932993,-0.251699,-6.753386,-7.188548
17.966404,-0.310060,-6.711785,-7.150389
17.999645,-0.310359,-6.663151,-7.147695
18.032938,-0.319937,-6.723158,-7.086491
18.066342,-0.305272,-6.726750,-7.083499
18.099639,-0.270106,-6.743959,-7.081703
18.133018,-0.228804,-6.821773,-7.134227
18.166416,-0.261426,-6.773887,-7.165653
18.199728,-0.303925,-6.689040,-7.096817
18.232504,-0.312903,-6.714928,-7.060753
18.266331,-0.279982,-6.799177,-7.021995
18.299610,-0.232545,-6.795436,-7.169543
18.332322,-0.316794,-6.764909,-7.068684
18.366321,-0.316196,-6.757726,-7.110285
18.399652,-0.269657,-6.737374,-7.132731
18.433000,-0.247958,-6.770745,-7.075268
18.466360,-0.261426,-6.780771,-7.082451
18.499686,-0.283573,-6.818631,-7.026784
18.533004,-0.293749,-6.838832,-7.054169
18.566381,-0.303626,-6.779125,-7.101007
18.599633,-0.303925,-6.780322,-7.100259
18.632993,-0.309761,-6.782267,-7.095171
18.666405,-0.309611,-6.807258,-7.075567
18.699657,-0.346573,-6.831649,-7.012568
18.733015,-0.333704,-6.880283,-7.066290
18.766378,-0.324127,-6.767752,-6.983687
18.799733,-0.291953,-6.832098,-7.006582
18.833059,-0.276540,-6.826861,-7.046836
18.866357,-0.275792,-6.853497,-7.103551
18.899656,-0.319488,-6.765657,-7.053869
18.933071,-0.339689,-6.817583,-6.928319
18.966369,-0.331160,-6.819528,-6.926373
18.999649,-0.298687,-6.791096,-6.999399
19.033080,-0.290008,-6.790647,-6.998052
19.066353,-0.251999,-6.860082,-6.997155
19.099625,-0.221023,-6.830153,-7.054917
19.133006,-0.255141,-6.863074,-6.987577
19.166384,-0.311706,-6.806809,-7.043993
19.199646,-0.310808,-6.796783,-7.052223
19.233017,-0.296293,-6.799027,-7.120161
19.266365,-0.298837,-6.777479,-7.111033
19.299684,-0.302728,-6.821025,-7.087240
19.333005,-0.297939,-6.838084,-7.036810
19.366311,-0.279234,-6.804564,-7.070031
19.399623,-0.287464,-6.802170,-7.083798
19.433026,-0.287314,-6.780771,-7.068085
19.466337,-0.300633,-6.781070,-7.073472
19.499721,-0.333404,-6.750094,-7.010473
19.533003,-0.262324,-6.796932,-7.072575
19.566342,-0.306020,-6.787954,-7.095620
19.599671,-0.304074,-6.784811,-7.054617
19.633005,-0.352409,-6.721063,-7.072575
19.666380,-0.287015,-6.806061,-7.067786
19.699663,-0.237334,-6.862476,-7.114175
19.733011,-0.295096,-6.776730,-7.138866
19.766407,-0.300633,-6.790647,-7.124800
19.799633,-0.288063,-6.762514,-7.099810
19.833071,-0.307666,-6.779274,-7.092178
19.866362,-0.306469,-6.727797,-7.085743
19.899720,-0.326521,-6.745156,-7.041150
19.933071,-0.309162,-6.791695,-7.034266
19.966358,-0.294348,-6.792293,-7.119562
19.999705,-0.283873,-6.809502,-7.096368
20.033042,-0.304673,-6.781968,-7.104598
20.066421,-0.337146,-6.744707,-7.098762
20.099641,-0.354803,-6.747101,-7.052522
20.132983,-0.329214,-6.768650,-7.095171
20.166349,-0.311108,-6.757576,-7.083648
20.199731,-0.317243,-6.751590,-7.067187
20.232708,-0.272799,-6.804265,-7.148294
20.266334,-0.273847,-6.807108,-7.125997
20.299700,-0.346124,-6.747999,-7.082301
20.332973,-0.382787,-6.679014,-7.074670
20.366316,-0.372910,-6.722560,-7.035912
20.399634,-0.276540,-6.803517,-7.143056
20.433021,-0.333704,-6.761617,-7.127643
20.466330,-0.307067,-6.779274,-7.168346
20.499651,-0.324276,-6.753386,-7.110285
20.533068,-0.327419,-6.774785,-7.113427
20.566346,-0.314699,-6.751740,-7.089185
20.599660,-0.367373,-6.742612,-7.094123
20.633035,-0.370815,-6.718519,-7.082301
20.666476,-0.346274,-6.718669,-7.130337
20.699661,-0.320984,-6.750244,-7.163707
20.733057,-0.331160,-6.761168,-7.134676
20.766392,-0.313502,-6.773887,-7.128541
20.799663,-0.343281,-6.749795,-7.084097
20.832775,-0.310509,-6.755930,-7.127194
20.866399,-0.320386,-6.752788,-7.099061
20.899659,-0.334751,-6.749495,-7.097266
20.932158,-0.337594,-6.726301,-7.083199
20.966340,-0.275942,-6.778227,-7.185405
20.999665,-0.289858,-6.834942,-7.160265
21.033016,-0.303626,-6.774336,-7.169992
21.066352,-0.362585,-6.702508,-7.073173
21.099653,-0.302877,-6.771792,-7.051475
21.133020,-0.308564,-6.787355,-7.049081
21.166345,-0.287763,-6.770146,-7.114774
21.199691,-0.303326,-6.826711,-7.067038
21.233004,-0.300184,-6.831949,-7.080506
21.266332,-0.293599,-6.834942,-7.088886
21.299659,-0.346573,-6.724355,-7.070330
21.333054,-0.369020,-6.753835,-7.027981
21.366380,-0.322481,-6.781519,-7.043544
21.399626,-0.291504,-6.823868,-7.044442
21.433042,-0.209051,-6.872053,-7.125698
21.466339,-0.232246,-6.880283,-7.056114
21.499722,-0.244966,-6.842573,-7.071826
21.533031,-0.301082,-6.827011,-7.013316
21.566354,-0.308414,-6.806809,-7.010772
21.599622,-0.307965,-6.808904,-6.963934
21.633025,-0.344478,-6.791545,-6.941338
21.666407,-0.319039,-6.814441,-7.018254
21.699653,-0.280132,-6.847362,-7.042945
21.733048,-0.304823,-6.811597,-7.090382
21.766421,-0.320984,-6.795137,-6.999399
21.799725,-0.278336,-6.860680,-6.994311
21.833055,-0.271303,-6.865618,-7.046537
21.866434,-0.363034,-6.750094,-7.002542
21.899681,-0.392364,-6.748298,-7.039204
21.933026,-0.259182,-6.883127,-7.105346
21.966399,-0.233443,-6.879236,-7.210994
21.999689,-0.300034,-6.819828,-7.079907
22.032701,-0.353906,-6.815488,-7.052522
22.065860,-0.342383,-6.813842,-6.965730
22.099690,-0.334153,-6.771044,-6.950915
22.133031,-0.302728,-6.755032,-7.006881
22.166431,-0.280880,-6.811298,-6.979347
22.199718,-0.283573,-6.787654,-7.073173
22.232993,-0.315747,-6.777628,-7.059406
22.266239,-0.282676,-6.796633,-7.097715
22.299499,-0.285070,-6.830901,-7.037109
22.332969,-0.285219,-6.814889,-7.078111
22.366073,-0.337594,-6.808754,-6.984285
22.399302,-0.322032,-6.809203,-7.092028
22.432989,-0.335799,-6.772391,-7.148144
22.466327,-0.371863,-6.766255,-7.160565
22.499662,-0.370217,-6.737524,-7.110285
22.532967,-0.303177,-6.786008,-7.109536
22.565671,-0.310659,-6.829854,-7.067786
22.599665,-0.356300,-6.781818,-7.028131
22.632117,-0.364530,-6.794837,-7.024539
22.665378,-0.372162,-6.759970,-7.063596
22.699693,-0.358993,-6.761467,-7.158919
22.733038,-0.369020,-6.719268,-7.130636
22.766420,-0.395207,-6.727498,-7.125399
22.799642,-0.326671,-6.786906,-7.085743
22.833027,-0.328616,-6.817882,-7.044591
22.866337,-0.330112,-6.792892,-7.115971
22.899649,-0.357198,-6.778676,-7.079458
22.933035,-0.369020,-6.766106,-7.115522
22.966397,-0.353307,-6.750693,-7.140662
22.999653,-0.353457,-6.744258,-7.124800
23.032978,-0.350613,-6.727348,-7.093076
23.065500,-0.347471,-6.756828,-7.053420
23.099671,-0.341336,-6.740517,-7.070330
23.133064,-0.319637,-6.780621,-7.092776
23.166373,-0.310808,-6.778377,-7.101306
23.199695,-0.361088,-6.714778,-7.058957
23.233053,-0.379943,-6.678415,-7.086940
23.266405,-0.364530,-6.743360,-7.072425
23.299718,-0.266215,-6.791994,-7.217130
23.332968,-0.340887,-6.742612,-7.195431
23.366337,-0.301830,-6.751142,-7.197676
23.399737,-0.333554,-6.711785,-7.140662
23.432977,-0.331309,-6.759671,-7.066140
23.466402,-0.319188,-6.709990,-7.071078
23.499719,-0.313502,-6.722410,-7.086042
23.533049,-0.309911,-6.719717,-7.131833
23.566404,-0.290756,-6.723458,-7.128990
23.599708,-0.279982,-6.762814,-7.172835
23.632964,-0.290457,-6.745156,-7.145002
23.666425,-0.287763,-6.744258,-7.136921
23.699677,-0.308863,-6.725702,-7.105496
23.733044,-0.306169,-6.728545,-7.110434
23.766377,-0.285818,-6.716574,-7.107292
23.799631,-0.301830,-6.743360,-7.108190
23.833022,-0.298388,-6.715527,-7.108040
23.866326,-0.251400,-6.741265,-7.185405
23.899666,-0.271752,-6.758624,-7.079159
23.932967,-0.279234,-6.727498,-7.133180
23.966333,-0.334003,-6.690387,-7.093076
23.999675,-0.252897,-6.761168,-7.126147
24.033003,-0.279383,-6.733783,-7.117916
24.066401,-0.292253,-6.755631,-7.120760
24.099655,-0.268011,-6.776132,-7.135874
24.132981,-0.256937,-6.766555,-7.235835
24.166438,-0.266664,-6.781968,-7.163408
24.199655,-0.284920,-6.722111,-7.161911
24.233033,-0.313352,-6.711337,-7.095769
24.266431,-0.329065,-6.739769,-7.044442
24.299655,-0.295694,-6.754883,-7.094572
24.332999,-0.251251,-6.762065,-7.188398
24.366355,-0.268011,-6.776132,-7.124052
24.399663,-0.259182,-6.773738,-7.130187
24.433001,-0.307217,-6.759073,-7.056114
24.466327,-0.296742,-6.746353,-7.045789
24.499661,-0.284920,-6.762514,-7.090382
24.533066,-0.299884,-6.762514,-7.117019
24.566409,-0.293599,-6.751142,-7.120909
24.599631,-0.269956,-6.778975,-7.098463
24.633014,-0.295994,-6.792144,-7.068834
24.666412,-0.331309,-6.736028,-7.016458
24.699630,-0.319488,-6.790198,-7.007181
24.733006,-0.274146,-6.820426,-7.082601
24.766429,-0.278785,-6.816236,-7.115223
24.799629,-0.302129,-6.789300,-7.143655
24.833089,-0.327568,-6.791844,-7.091879
24.866455,-0.317243,-6.764460,-7.096817
24.899687,-0.294198,-6.803517,-7.027382
24.933064,-0.330861,-6.767303,-7.030974
24.966411,-0.313652,-6.818032,-7.017805
24.999633,-0.280880,-6.831949,-7.055515
25.032998,-0.283723,-6.803666,-7.084396
25.066453,-0.276690,-6.825813,-7.068385
25.099698,-0.300782,-6.848559,-7.041299
25.132354,-0.295844,-6.825664,-7.042047
25.166387,-0.313801,-6.821623,-7.046237
25.199734,-0.299286,-6.815937,-7.022295
25.233007,-0.324875,-6.804265,-6.965131
25.266385,-0.317542,-6.794987,-6.925775
25.299720,-0.272649,-6.810699,-7.018553
25.333061,-0.263521,-6.827459,-6.984285
25.366020,-0.269507,-6.790947,-7.041898
25.399631,-0.278037,-6.861877,-7.001494
25.432997,-0.254992,-6.846015,-7.076016
25.466372,-0.245564,-6.863673,-7.118814
25.499744,-0.346124,-6.774486,-7.040401
25.533019,-0.320685,-6.779873,-7.041599
25.566443,-0.292103,-6.809802,-7.006732
25.599664,-0.273996,-6.810699,-7.074819
25.632993,-0.280431,-6.821773,-6.968872
25.666467,-0.308863,-6.774486,-7.014663
25.699650,-0.305421,-6.775384,-7.026634
25.733010,-0.296592,-6.771942,-7.075567
25.766379,-0.256787,-6.785859,-7.124351
25.799709,-0.237184,-6.807557,-7.091879
25.833026,-0.256937,-6.790647,-7.092627
25.865904,-0.257536,-6.775084,-7.113427
25.899657,-0.315597,-6.685299,-7.135874
25.933060,-0.285818,-6.661356,-7.202016
25.966313,-0.334452,-6.662104,-7.166700
25.999683,-0.204861,-6.753985,-7.271450
26.032993,-0.205460,-6.798728,-7.104449
26.066354,-0.175980,-6.809652,-7.130786
26.099733,-0.213690,-6.712534,-7.044142
26.133011,-0.272949,-6.699814,-7.062100
26.166368,-0.190346,-6.707595,-7.220571
26.199629,-0.242272,-6.674524,-7.262771
26.233022,-0.241524,-6.681258,-7.334150
26.266340,-0.228654,-6.683054,-7.271749
26.299677,-0.193488,-6.695923,-7.126895
26.333003,-0.177776,-6.718370,-7.058209
26.365726,-0.206657,-6.665396,-7.087838
26.399713,-0.218778,-6.726002,-7.079757
26.432998,-0.225961,-6.707895,-7.168945
26.466141,-0.219676,-6.721213,-7.224462
26.499691,-0.217880,-6.729743,-7.239576
26.533020,-0.251251,-6.738871,-7.170740
26.566419,-0.247958,-6.733035,-7.136921
26.599688,-0.187353,-6.749047,-7.080955
26.633066,-0.263222,-6.744857,-7.028280
26.666395,-0.248108,-6.719417,-7.133030
26.699714,-0.284920,-6.645643,-7.137220
26.733088,-0.279234,-6.627088,-7.222367
26.766383,-0.280431,-6.603743,-7.197526
26.799675,-0.319338,-6.658662,-7.170740
26.833071,-0.266065,-6.626788,-7.195731
26.866395,-0.280132,-6.795286,-7.107292
26.899673,-0.159220,-6.785410,-7.202465
26.933077,-0.255590,-6.761617,-7.205757
26.965915,-0.389970,-6.756379,-7.104897
26.999641,-0.361837,-6.647439,-7.093375
27.033058,-0.428877,-6.701610,-7.027233
27.066479,-0.317692,-6.649833,-7.277735
27.099631,-0.375903,-6.694726,-7.144403
27.133071,-0.315597,-6.712085,-7.341782
27.166469,-0.402540,-6.608532,-7.296740
27.199656,-0.298238,-6.653425,-7.340435
27.233071,-0.323378,-6.748747,-7.163857
27.266401,-0.244367,-6.759073,-7.177774
27.299637,-0.310808,-6.753985,-6.991169
27.332989,-0.293300,-6.757726,-7.119263
27.366391,-0.299735,-6.688740,-7.162660
27.399688,-0.313652,-6.700562,-7.164306
27.433074,-0.290607,-6.725104,-7.176726
27.465669,-0.248407,-6.775683,-7.143206
27.499647,-0.309013,-6.749495,-7.090532
27.533024,-0.322181,-6.690686,-7.059406
27.566201,-0.318590,-6.732586,-6.989074
27.599632,-0.286417,-6.713581,-7.145301
27.633004,-0.299884,-6.738272,-7.138717
27.666338,-0.351362,-6.778825,-7.210994
27.699719,-0.163410,-6.869958,-7.171040
27.733044,-0.251550,-6.899288,-6.972314
27.766349,-0.214588,-6.709690,-7.161911
27.799629,-0.294797,-6.813393,-6.916497
27.832880,-0.337744,-6.865918,-6.913953
27.866395,-0.298089,-6.851552,-6.961240
27.899676,-0.271452,-6.837486,-7.015561
27.933019,-0.310060,-6.832847,-6.995209
27.966384,-0.388473,-6.731089,-7.039204
27.999656,-0.338792,-6.711636,-7.170740
28.032938,-0.305122,-6.773738,-7.207403
28.065983,-0.281179,-6.803068,-7.165802
28.099684,-0.278336,-6.817583,-7.099061
28.133007,-0.306618,-6.796633,-7.041000
28.166373,-0.249305,-6.825215,-6.998501
28.199632,-0.303177,-6.822671,-6.990121
28.233002,-0.338941,-6.734531,-6.917694
28.266363,-0.319338,-6.759073,-6.950915
28.299668,-0.309162,-6.769847,-6.966029
28.332995,-0.324276,-6.758324,-7.021247
28.366408,-0.289260,-6.803068,-7.101007
28.399624,-0.257386,-6.820576,-7.144104
28.432999,-0.225362,-6.738871,-7.249602
28.466469,-0.254243,-6.774486,-7.162061
28.499656,-0.268160,-6.725104,-7.150688
28.533047,-0.294198,-6.742013,-7.047135
28.565798,-0.259032,-6.760120,-7.068983
28.599736,-0.233742,-6.773438,-7.141710
28.632979,-0.252448,-6.769997,-7.094273
28.665788,-0.189598,-6.779125,-7.166251
28.699753,-0.250353,-6.752638,-7.093674
28.732998,-0.233443,-6.776730,-7.074370
28.766356,-0.262174,-6.729443,-7.084845
28.799753,-0.254393,-6.740068,-7.080506
28.832989,-0.279383,-6.674674,-7.161463
28.866324,-0.277288,-6.727947,-7.163857
28.899676,-0.189149,-6.727498,-7.249303
28.932986,-0.282376,-6.720465,-7.124052
28.966323,-0.264868,-6.716275,-7.096218
28.999678,-0.255590,-6.695474,-7.125997
29.032986,-0.223567,-6.740367,-7.150838
29.066330,-0.212643,-6.713880,-7.183610
29.099734,-0.283723,-6.691135,-7.163558
29.133018,-0.266963,-6.717322,-7.167299
29.165549,-0.252448,-6.667491,-7.206804
29.199661,-0.268459,-6.699365,-7.112529
29.232944,-0.282526,-6.692930,-7.122256
29.266334,-0.285070,-6.711636,-7.059256
29.299700,-0.235089,-6.751441,-7.128990
29.332975,-0.262324,-6.736477,-7.186902
29.366389,-0.280281,-6.721812,-7.215484
29.399672,-0.276690,-6.673477,-7.210545
29.432977,-0.330262,-6.651330,-7.098912
29.466402,-0.296293,-6.666893,-7.105346
29.499677,-0.270405,-6.719417,-7.067786
29.532972,-0.217132,-6.717023,-7.136771
29.566430,-0.247958,-6.714180,-7.129289
29.599693,-0.221621,-6.696821,-7.242120
29.633031,-0.228505,-6.672429,-7.274293
29.665358,-0.294946,-6.659111,-7.213987
29.699724,-0.301979,-6.615715,-7.146797
29.733053,-0.271303,-6.652676,-7.140812
29.766366,-0.201120,-6.741864,-7.126745
29.799717,-0.225811,-6.692781,-7.230149
29.833036,-0.243170,-6.686945,-7.221619
29.866414,-0.249006,-6.685748,-7.231346
29.899723,-0.232695,-6.681258,-7.270253
29.933006,-0.235388,-6.675273,-7.142159
29.966407,-0.245564,-6.640106,-7.179120
29.999680,-0.286716,-6.656567,-7.120161
30.033031,-0.279832,-6.654472,-7.138567
30.066403,-0.234640,-6.704902,-7.251996
30.099730,-0.228954,-6.726600,-7.197377
30.133028,-0.223118,-6.722260,-7.218626
30.166407,-0.310659,-6.670334,-7.135275
30.199720,-0.266813,-6.666444,-7.179869
30.233044,-0.258433,-6.687094,-7.172985
30.266335,-0.259032,-6.671083,-7.192738
30.299656,-0.275493,-6.678714,-7.131983
30.332968,-0.199624,-6.681408,-7.228054
30.366123,-0.225213,-6.689489,-7.144403
30.399379,-0.212942,-6.730491,-7.125399
30.433043,-0.232395,-6.646242,-7.121957
30.466340,-0.254393,-6.664349,-7.124351
30.499699,-0.215486,-6.600002,-7.097715
30.533036,-0.270704,-6.440483,-7.314248
30.565627,-0.205310,-6.484029,-7.379941
30.599654,-0.225063,-6.539397,-7.537964
30.632051,-0.216234,-6.565435,-7.555472
30.666433,-0.180619,-6.573665,-7.401041
30.699667,-0.213989,-6.544634,-7.235236
30.733105,-0.183313,-6.573366,-7.172536
30.766318,-0.227607,-6.503931,-7.156375
30.799665,-0.236735,-6.496000,-7.233590
30.833068,-0.186754,-6.503034,-7.398497
30.866385,-0.219377,-6.471609,-7.442193
30.899665,-0.205160,-6.511264,-7.455361
30.932963,-0.168498,-6.481635,-7.395654
30.966329,-0.157873,-6.530568,-7.421841
30.999673,-0.164158,-6.492409,-7.303773
31.032977,-0.157873,-6.508570,-7.343279
31.066396,-0.154282,-6.519045,-7.280279
31.099662,-0.187952,-6.497796,-7.304372
31.132972,-0.189747,-6.456495,-7.350611
31.166381,-0.200222,-6.484328,-7.383682
31.199685,-0.166104,-6.515005,-7.426331
31.232986,-0.201569,-6.487770,-7.403286
31.266395,-0.245564,-6.508870,-7.353005
31.299738,-0.230001,-6.513209,-7.350761
31.332982,-0.227906,-6.500639,-7.368718
31.366388,-0.205310,-6.513509,-7.317540
31.399663,-0.262923,-6.500340,-7.308412
31.432975,-0.241673,-6.572318,-7.254690
31.466392,-0.227607,-6.570822,-7.272797
31.499654,-0.280132,-6.546131,-7.247358
31.532985,-0.260828,-6.544335,-7.280878
31.566387,-0.299884,-6.529371,-7.270403
31.599703,-0.316046,-6.524881,-7.248854
31.632971,-0.298388,-6.542539,-7.242419
31.666398,-0.256488,-6.572019,-7.279082
31.699671,-0.250502,-6.597907,-7.264267
31.732996,-0.270405,-6.560496,-7.287312
31.766427,-0.260379,-6.563190,-7.313200
31.799677,-0.282227,-6.551817,-7.280129
31.832971,-0.282077,-6.537002,-7.254540
31.866388,-0.282825,-6.512760,-7.281925
31.899677,-0.256488,-6.578304,-7.276239
31.932983,-0.236436,-6.590874,-7.325471
31.966400,-0.277588,-6.550171,-7.342082
31.999711,-0.283124,-6.575760,-7.320533
32.032369,-0.248258,-6.528922,-7.353903
32.066348,-0.269208,-6.508870,-7.261274
32.099692,-0.228056,-6.497048,-7.263818
32.133038,-0.278336,-6.488518,-7.261723
32.166015,-0.222220,-6.546729,-7.325920
32.199659,-0.251550,-6.549872,-7.317091
32.232985,-0.222669,-6.550171,-7.426630
32.266335,-0.238232,-6.543437,-7.408673
32.299662,-0.242422,-6.528024,-7.342979
32.332985,-0.243619,-6.522637,-7.339388
32.366377,-0.249604,-6.522487,-7.277585
32.399750,-0.240177,-6.530717,-7.259479
32.432995,-0.265317,-6.500939,-7.258132
32.466392,-0.203365,-6.538499,-7.322029
32.499736,-0.203814,-6.541342,-7.315744
32.532984,-0.228056,-6.549124,-7.343578
32.566393,-0.228954,-6.527575,-7.311405
32.599940,-0.262474,-6.515604,-7.258730
32.633048,-0.212792,-6.596111,-7.290155
32.666397,-0.202467,-6.567829,-7.362732
32.699792,-0.286117,-6.532812,-7.267410
32.732997,-0.220125,-6.552565,-7.356298
32.766401,-0.238681,-6.547328,-7.323675
32.799774,-0.219975,-6.579800,-7.326369
32.832979,-0.253794,-6.528323,-7.272198
32.866417,-0.258882,-6.518746,-7.256486
32.899763,-0.256338,-6.557055,-7.202614
32.933027,-0.227457,-6.548675,-7.266362
32.966396,-0.204712,-6.606736,-7.314248
32.999772,-0.236885,-6.611076,-7.300780
33.032931,-0.264269,-6.582644,-7.271749
33.066438,-0.265467,-6.547627,-7.281027
33.099764,-0.264419,-6.566781,-7.223415
33.132995,-0.232844,-6.570074,-7.262172
33.166351,-0.253495,-6.568577,-7.282524
33.199774,-0.244068,-6.567230,-7.314098
33.232991,-0.220574,-6.585786,-7.338490
33.266414,-0.278934,-6.569625,-7.271450
33.299029,-0.284322,-6.541342,-7.209049
33.332987,-0.313951,-6.520093,-7.213389
33.366418,-0.244068,-6.609729,-7.236284
33.399709,-0.224614,-6.577556,-7.311255
33.432984,-0.288063,-6.570373,-7.294944
33.466390,-0.256488,-6.545233,-7.339089
33.499709,-0.230749,-6.534309,-7.355998
33.532979,-0.216982,-6.563489,-7.322478
33.566406,-0.254543,-6.558102,-7.293148
33.599698,-0.241524,-6.567679,-7.322628
33.632974,-0.253495,-6.588031,-7.241821
33.666396,-0.237034,-6.569924,-7.352407
33.699621,-0.257386,-6.567230,-7.333552
33.733036,-0.255740,-6.572917,-7.292999
33.766398,-0.288661,-6.533411,-7.248106
33.799723,-0.257536,-6.540594,-7.287761
33.833053,-0.241524,-6.579351,-7.223564
33.866402,-0.216384,-6.578304,-7.266961
33.899698,-0.260678,-6.553912,-7.229849
33.932998,-0.226410,-6.585786,-7.234638
33.966342,-0.166702,-6.617510,-7.295543
33.999713,-0.181816,-6.580549,-7.395654
34.033040,-0.185408,-6.591772,-7.321880
34.066412,-0.211146,-6.577556,-7.339388
34.099695,-0.212493,-6.564238,-7.308861
34.133044,-0.249305,-6.515005,-7.300331
34.166347,-0.272201,-6.534459,-7.235985
34.199136,-0.272350,-6.561095,-7.183909
34.232989,-0.189298,-6.576508,-7.297338
34.266341,-0.187503,-6.620503,-7.261125
34.299135,-0.159070,-6.637712,-7.341782
34.332358,-0.196032,-6.607484,-7.300630
34.366336,-0.168648,-6.568428,-7.391164
34.399674,-0.259481,-6.581297,-7.094422
34.432628,-0.197379,-6.668239,-7.256635
34.466404,-0.205310,-6.613769,-7.248555
34.499693,-0.251699,-6.630230,-7.236583
34.533028,-0.251849,-6.633672,-7.244664
34.566395,-0.243619,-6.612871,-7.224013
34.599667,-0.274894,-6.626489,-7.159966
34.633024,-0.246612,-6.665246,-7.181964
34.666388,-0.225961,-6.670035,-7.177624
34.699766,-0.254543,-6.667790,-7.170740
34.733032,-0.300483,-6.604491,-7.146049
34.766395,-0.286566,-6.633971,-7.132881
34.799714,-0.302279,-6.643099,-7.160864
34.832989,-0.288661,-6.630829,-7.209348
34.866330,-0.333704,-6.623945,-7.128990
34.899729,-0.302129,-6.644147,-7.190044
34.932988,-0.267113,-6.670933,-7.193486
34.966326,-0.273398,-6.675871,-7.184956
34.999710,-0.270106,-6.651479,-7.166999
35.032988,-0.337445,-6.629183,-7.158470
35.066436,-0.309013,-6.642052,-7.108339
35.099662,-0.249754,-6.633971,-7.277585
35.132979,-0.259481,-6.653574,-7.279680
35.166404,-0.253196,-6.644446,-7.324873
35.199701,-0.289709,-6.620204,-7.288210
35.232998,-0.326371,-6.599853,-7.288659
35.266396,-0.299286,-6.626489,-7.222666
35.299756,-0.296443,-6.619007,-7.240923
35.332985,-0.314998,-6.591173,-7.181814
35.366425,-0.301830,-6.619156,-7.195581
35.399674,-0.297640,-6.626938,-7.111033
35.433037,-0.271153,-6.665995,-7.136472
35.466399,-0.226559,-6.650133,-7.233590
35.499673,-0.275942,-6.610028,-7.345224
35.532982,-0.236585,-6.656118,-7.334749
35.566395,-0.293749,-6.623945,-7.288060
35.599713,-0.335350,-6.584589,-7.238678
35.633031,-0.318141,-6.609879,-7.160565
35.666400,-0.289559,-6.598955,-7.173284
35.699690,-0.252897,-6.636814,-7.187800
35.733064,-0.267262,-6.618408,-7.187949
35.766403,-0.240626,-6.615415,-7.276538
35.799717,-0.251849,-6.638610,-7.228652
35.833056,-0.222369,-6.672579,-7.253792
35.866331,-0.261426,-6.656268,-7.211294
35.899656,-0.280730,-6.649684,-7.221469
35.932856,-0.301082,-6.643249,-7.168346
35.966231,-0.312903,-6.600002,-7.202016
35.999523,-0.286716,-6.619156,-7.268308
36.032984,-0.303177,-6.589826,-7.199322
36.066331,-0.272350,-6.630679,-7.187650
36.099698,-0.235089,-6.657166,-7.199322
36.132975,-0.239129,-6.654323,-7.203961
36.166367,-0.235089,-6.627686,-7.155477
36.199675,-0.260528,-6.626489,-7.168196
36.232536,-0.234042,-6.673926,-7.209498
36.266359,-0.215037,-6.636216,-7.282823
36.299693,-0.264868,-6.590126,-7.313350
36.333020,-0.275193,-6.603893,-7.285816
36.366318,-0.265766,-6.609879,-7.234189
36.399683,-0.259780,-6.637563,-7.146498
36.433037,-0.242422,-6.647589,-7.158470
36.466337,-0.230749,-6.630978,-7.184807
36.499731,-0.243768,-6.618857,-7.193187
36.533056,-0.240626,-6.602396,-7.273395
36.566361,-0.239878,-6.607335,-7.245562
36.599680,-0.256638,-6.607035,-7.283272
36.633045,-0.248258,-6.617810,-7.254540
36.666309,-0.275792,-6.598356,-7.231046
36.699743,-0.262474,-6.600451,-7.245412
36.733058,-0.227158,-6.640855,-7.228054
36.766326,-0.231647,-6.614218,-7.279531
36.799681,-0.172688,-6.643997,-7.305718
36.833052,-0.164158,-6.676769,-7.328763
36.866348,-0.256937,-6.610477,-7.238978
36.899716,-0.271901,-6.551667,-7.219674
36.932966,-0.259930,-6.547777,-7.192588
36.966350,-0.192142,-6.637862,-7.219075
36.999701,-0.219825,-6.635019,-7.272946
37.033020,-0.218479,-6.618408,-7.270851
37.066314,-0.201569,-6.643698,-7.272797
37.099663,-0.224614,-6.627836,-7.246909
37.133008,-0.212343,-6.625890,-7.181814
37.166315,-0.227008,-6.629332,-7.168645
37.199671,-0.226859,-6.657615,-7.166550
37.233025,-0.235538,-6.674225,-7.215633
37.266425,-0.240925,-6.663750,-7.272198
37.299674,-0.217730,-6.659410,-7.262920
37.333019,-0.239279,-6.658812,-7.225210
37.366331,-0.254243,-6.642950,-7.189446
37.399672,-0.249006,-6.665396,-7.145151
37.433041,-0.234191,-6.677966,-7.109237
37.466327,-0.259930,-6.708344,-7.055815
37.499675,-0.196780,-6.657315,-7.239576
37.533011,-0.231348,-6.684999,-7.208600
37.566314,-0.288811,-6.616912,-7.266811
37.599670,-0.285369,-6.589677,-7.216681
37.633028,-0.294946,-6.672429,-7.121807
37.666379,-0.248856,-6.702508,-7.154878
37.699664,-0.275493,-6.709690,-7.101306
37.733026,-0.249006,-6.704752,-7.209049
37.766384,-0.285369,-6.683653,-7.144702
37.799659,-0.294198,-6.663301,-7.190194
37.833040,-0.292253,-6.661954,-7.126296
37.866326,-0.300483,-6.688142,-7.146049
37.899672,-0.309462,-6.678714,-7.099211
37.933052,-0.349117,-6.647888,-7.116270
37.966322,-0.305272,-6.629033,-7.170142
37.999668,-0.326970,-6.638311,-7.145002
38.032953,-0.323528,-6.641603,-7.154878
38.066334,-0.293151,-6.686645,-7.191241
38.099765,-0.281478,-6.700413,-7.251548
38.133012,-0.281628,-6.701460,-7.262322
38.166325,-0.362735,-6.664947,-7.184657
38.199685,-0.342084,-6.659111,-7.217130
38.233098,-0.376651,-6.640256,-7.143954
38.266377,-0.373958,-6.632026,-7.189296
38.299759,-0.414062,-6.625890,-7.033518
38.333062,-0.359742,-6.703854,-7.139016
38.366416,-0.350913,-6.695774,-7.153082
38.399716,-0.353906,-6.673327,-7.242120
38.433037,-0.385780,-6.638460,-7.275191
38.466395,-0.430822,-6.677068,-7.203063
38.499707,-0.359592,-6.610028,-7.252296
38.533035,-0.356300,-6.575012,-7.256336
38.565372,-0.408376,-6.572169,-7.170142
38.599718,-0.351062,-6.658662,-7.224013
38.633043,-0.400594,-6.795885,-7.224911
38.666368,-0.398200,-6.758773,-7.283721
38.699732,-0.469580,-6.692033,-7.254241
38.733068,-0.614883,-6.585487,-7.090532
38.766362,-0.600667,-6.578304,-7.060902
38.799159,-0.571037,-6.628434,-7.060005
38.832980,-0.567147,-6.646541,-7.053420
38.866375,-0.536171,-6.660009,-7.036511
38.899686,-0.494121,-6.656567,-7.132282
38.933057,-0.397003,-6.770595,-7.265464
38.966377,-0.456411,-6.747101,-7.251847
38.999657,-0.461050,-6.731538,-7.164455
39.033016,-0.528539,-6.627536,-7.116121
39.066383,-0.483197,-6.676919,-7.148294
39.099672,-0.463743,-6.707147,-7.193486
39.133019,-0.512677,-6.691584,-7.176726
39.166333,-0.499807,-6.713282,-7.176277
39.199673,-0.500256,-6.665097,-7.142458
39.232992,-0.446385,-6.706847,-7.188548
39.266385,-0.480504,-6.689938,-7.102204
39.299659,-0.465090,-6.690686,-7.184208
39.333026,-0.493822,-6.693379,-7.101456
39.366364,-0.537667,-6.652377,-7.067786
39.399679,-0.527791,-6.648038,-7.044142
39.433015,-0.469879,-6.704752,-7.216381
39.466379,-0.461200,-6.703854,-7.170740
39.499707,-0.439950,-6.746054,-7.136322
39.533000,-0.417653,-6.737374,-7.128990
39.566405,-0.395506,-6.672130,-7.220123
39.599684,-0.428727,-6.670634,-7.203213
39.633058,-0.411069,-6.621700,-7.286265
39.665346,-0.383535,-6.681408,-7.155327
39.699712,-0.378896,-6.725253,-7.081852
39.733073,-0.378297,-6.709541,-7.091430
39.766385,-0.379943,-6.682904,-7.110135
39.799674,-0.442045,-6.681258,-7.066888
39.832985,-0.384283,-6.652676,-7.203213
39.866366,-0.457608,-6.606736,-7.122705
39.899744,-0.383086,-6.601798,-7.220871
39.933065,-0.298687,-6.655669,-7.348516
39.966374,-0.252298,-6.733783,-7.246909
39.999363,-0.245714,-6.711037,-7.251996
40.033027,-0.260528,-6.714928,-7.178671
40.066370,-0.277139,-6.697569,-7.077662
40.099736,-0.221920,-6.664498,-7.189745
40.133008,-0.259331,-6.684401,-7.210396
40.166451,-0.241075,-6.659410,-7.200669
40.199764,-0.282077,-6.643099,-7.209498
40.233068,-0.307217,-6.664349,-7.213089
40.266353,-0.322181,-6.644895,-7.211593
40.299715,-0.306319,-6.598805,-7.278184
40.333026,-0.277737,-6.618558,-7.232244
40.366317,-0.261875,-6.665995,-7.216232
40.399554,-0.289409,-6.684850,-7.133180
40.432976,-0.216533,-6.754883,-7.238978
40.466312,-0.309611,-6.696971,-7.125399
40.499406,-0.355851,-6.616613,-7.125548
40.532657,-0.375005,-6.583990,-7.173434
40.566352,-0.346723,-6.624544,-7.175529
40.599662,-0.238232,-6.700113,-7.265015
40.632997,-0.269657,-6.701310,-7.206655
40.666311,-0.278486,-6.723458,-7.203512
40.699668,-0.279832,-6.674524,-7.234039
40.733014,-0.300184,-6.651629,-7.215633
40.766374,-0.295395,-6.660009,-7.202914
40.799651,-0.300633,-6.662104,-7.218028
40.832879,-0.308863,-6.663301,-7.142308
40.866419,-0.291953,-6.686047,-7.176576
40.899675,-0.295694,-6.686346,-7.140662
40.932988,-0.287464,-6.675572,-7.204709
40.966368,-0.264120,-6.742163,-7.219674
40.999745,-0.306020,-6.746054,-7.151137
41.032985,-0.320984,-6.767153,-7.212491
41.066327,-0.494121,-6.627088,-6.822821
41.099741,-0.491278,-6.600601,-7.034266
41.132988,-0.425585,-6.695474,-7.095320
41.166310,-0.424836,-6.707446,-7.082002
41.199750,-0.352858,-6.689938,-7.137071
41.233086,-0.398948,-6.680809,-7.082900
41.266356,-0.340587,-6.657016,-7.206206
41.299675,-0.199474,-6.825813,-7.223415
41.332978,-0.236585,-6.823269,-7.151736
41.366313,-0.235538,-6.773588,-7.195581
41.399670,-0.319787,-6.747700,-7.068385
41.432999,-0.367373,-6.627536,-7.197377
41.466312,-0.367822,-6.643848,-7.088437
41.499670,-0.344777,-6.692332,-7.113427
41.533010,-0.295694,-6.756379,-7.070480
41.566318,-0.302877,-6.724505,-7.064644
41.599735,-0.255740,-6.719268,-7.140961
41.633007,-0.304074,-6.705500,-7.077214
41.666360,-0.286417,-6.737524,-7.083050
41.699745,-0.285668,-6.746802,-7.052672
41.732953,-0.231797,-6.821773,-7.176726
41.766386,-0.268908,-6.849607,-7.096517
41.799091,-0.272201,-6.842424,-7.095320
41.832995,-0.298538,-6.759073,-7.120909
41.865426,-0.323528,-6.751142,-7.047584
41.899745,-0.302877,-6.753685,-7.010323
41.933105,-0.287614,-6.784811,-7.075268
41.966388,-0.282077,-6.773738,-7.016758
41.999739,-0.292851,-6.786308,-7.077363
42.033008,-0.307516,-6.744857,-7.094422
42.066383,-0.333554,-6.726899,-7.169543
42.099683,-0.282227,-6.790198,-7.149940
42.133086,-0.331459,-6.791096,-7.042496
42.166382,-0.299735,-6.809203,-7.036810
42.199820,-0.253794,-6.809053,-7.070180
42.232982,-0.272649,-6.773887,-7.053570
42.266309,-0.285519,-6.752339,-7.120011
42.299105,-0.317243,-6.749495,-7.041150
42.332986,-0.296892,-6.805462,-7.032470
42.366376,-0.263671,-6.834642,-7.098463
42.399723,-0.279533,-6.804564,-7.141710
42.439357,-0.292851,-6.818930,-7.075867
42.466347,-0.289409,-6.789001,-7.091130
42.499705,-0.333404,-6.784662,-7.019601
42.533092,-0.319637,-6.806958,-7.029028
42.566365,-0.325922,-6.787056,-7.030375
42.599764,-0.274296,-6.812645,-7.084696
42.633035,-0.288362,-6.798429,-7.075567
42.671178,-0.287614,-6.790498,-7.088886
42.699674,-0.275792,-6.823569,-7.059556
42.733702,-0.321882,-6.794089,-6.967675
42.765966,-0.315298,-6.810849,-7.016159
42.799749,-0.313352,-6.776880,-6.982340
42.833089,-0.299735,-6.819828,-7.054318
42.866389,-0.266065,-6.833296,-7.116420
42.899719,-0.312305,-6.798129,-7.119413
42.933080,-0.306020,-6.830153,-7.130187
42.966414,-0.313053,-6.789749,-7.078261
42.999755,-0.310210,-6.841526,-7.026036
43.032971,-0.295994,-6.824766,-6.936100
43.066377,-0.305571,-6.788852,-6.940440
43.099669,-0.307816,-6.837486,-6.957798
43.133044,-0.280132,-6.822521,-7.064045
43.166387,-0.263970,-6.815937,-7.138118
43.199741,-0.263521,-6.838533,-7.139764
43.233009,-0.272201,-6.800075,-6.963635
43.266378,-0.295395,-6.814590,-7.107741
43.299766,-0.289409,-6.802319,-7.062848
43.333047,-0.307217,-6.770745,-7.040701
43.366456,-0.296892,-6.769697,-7.064644
43.399763,-0.285818,-6.818182,-7.017356
43.433018,-0.262174,-6.793939,-7.089933
43.466215,-0.228654,-6.833296,-7.116270
43.499678,-0.273996,-6.812495,-7.035912
43.532638,-0.288512,-6.773438,-7.052223
43.565919,-0.300184,-6.754583,-7.023342
43.599343,-0.268160,-6.816386,-7.043694
43.633074,-0.253645,-6.867115,-7.096218
43.666314,-0.268160,-6.805312,-7.145451
43.699114,-0.271303,-6.809203,-7.123154
43.733049,-0.269058,-6.813094,-7.079159
43.766330,-0.305272,-6.807707,-7.080506
43.799679,-0.284920,-6.788103,-7.016010
43.832316,-0.278336,-6.806061,-7.011670
43.866397,-0.278934,-6.831201,-7.001045
43.899761,-0.278635,-6.825514,-7.041000
43.933013,-0.252298,-6.837037,-7.073921
43.966382,-0.266664,-6.840628,-7.049530
43.999722,-0.289409,-6.840329,-7.056264
44.033059,-0.284471,-6.829405,-7.025138
44.066383,-0.302129,-6.840329,-6.964981
44.099752,-0.265916,-6.856490,-6.990121
44.133024,-0.249305,-6.850953,-7.014513
44.166378,-0.270106,-6.859483,-6.955105
44.199737,-0.269058,-6.867264,-6.973960
44.233075,-0.215486,-6.854096,-7.058957
44.266377,-0.298538,-6.844519,-6.964682
44.299718,-0.287464,-6.777928,-7.046537
44.333024,-0.300034,-6.849307,-6.885970
44.366378,-0.187802,-6.864272,-7.113726
44.399718,-0.256937,-6.878039,-7.014064
44.432472,-0.204113,-6.892704,-7.147246
44.466371,-0.295545,-6.869808,-6.968722
44.499764,-0.237932,-6.832398,-7.034116
44.533038,-0.257835,-6.844668,-6.896594
44.566362,-0.230300,-6.839281,-6.965879
44.599752,-0.249305,-6.820576,-7.028430
44.633227,-0.217581,-6.859483,-7.027233
44.666381,-0.241823,-6.822970,-7.089335
44.699756,-0.272799,-6.822671,-7.028430
44.733021,-0.239578,-6.834343,-7.028879
44.766374,-0.242571,-6.864272,-6.997903
44.799760,-0.234640,-6.847661,-7.009425
44.832681,-0.240327,-6.812046,-6.964532
44.866389,-0.234191,-6.815937,-6.975456
44.899737,-0.225362,-6.798129,-6.992965
44.933077,-0.237932,-6.778077,-6.994760
44.966390,-0.190196,-6.834792,-7.024689
44.999730,-0.166702,-6.856191,-7.050727
45.033016,-0.188101,-6.798728,-7.155028
45.066402,-0.208153,-6.805761,-7.057311
45.099694,-0.214139,-6.808604,-7.037259
45.133073,-0.202467,-6.855443,-7.042796
45.166392,-0.263072,-6.818182,-7.004936
45.199741,-0.273547,-6.791395,-7.047285
45.233082,-0.211296,-6.815787,-7.110584
45.266307,-0.200222,-6.771792,-7.119862
45.299670,-0.207255,-6.837486,-7.064195
45.333098,-0.203514,-6.786607,-7.053869
45.366309,-0.192291,-6.781669,-7.041449
45.399671,-0.183911,-6.806210,-7.073921
45.432676,-0.206807,-6.784662,-7.106693
45.465952,-0.201419,-6.785559,-7.162809
45.499671,-0.220274,-6.803367,-7.112829
45.533082,-0.229253,-6.808455,-7.067636
45.566312,-0.217282,-6.799327,-7.107591
45.599735,-0.223118,-6.758773,-7.073622
45.633011,-0.198277,-6.777179,-7.118814
45.666392,-0.221920,-6.768650,-7.118365
45.699730,-0.206358,-6.762365,-7.069731
45.732640,-0.171192,-6.796932,-7.055216
45.766374,-0.217282,-6.762963,-7.056712
45.799749,-0.258733,-6.767902,-7.000297
45.833050,-0.226260,-6.760569,-7.040252
45.866323,-0.217431,-6.802619,-7.026485
45.899724,-0.165804,-6.829106,-7.076316
45.933002,-0.227457,-6.783015,-7.055366
45.966388,-0.221920,-6.800973,-7.042047
45.999716,-0.170743,-6.799476,-7.112978
46.033009,-0.218030,-6.771044,-7.109985
46.066398,-0.160866,-6.758025,-7.191541
46.099777,-0.222220,-6.739619,-7.148444
46.133020,-0.204712,-6.759372,-7.100558
46.166376,-0.157275,-6.760569,-7.097116
46.199744,-0.167899,-6.793939,-7.075119
46.233590,-0.159370,-6.792443,-7.023192
46.266398,-0.160118,-6.778077,-6.987278
46.299735,-0.160717,-6.794239,-7.013615
46.333581,-0.165355,-6.743360,-7.177474
46.366348,-0.172538,-6.693230,-7.230149
46.399706,-0.188700,-6.719866,-7.246460
46.433580,-0.194536,-6.678116,-7.179719
46.466336,-0.193488,-6.711337,-7.095769
46.499742,-0.123306,-6.784362,-7.089784
46.533652,-0.150242,-6.738721,-7.070929
46.566287,-0.144106,-6.731239,-7.070180
46.599717,-0.160717,-6.692781,-7.153980
46.633555,-0.149044,-6.756978,-7.119562
46.666401,-0.161914,-6.724804,-7.150539
46.699715,-0.177626,-6.700113,-7.237481
46.733366,-0.209949,-6.717622,-7.154130
46.766376,-0.142161,-6.692182,-7.205308
46.799751,-0.176130,-6.732586,-7.102054
46.833551,-0.146650,-6.773139,-7.111781
46.866391,-0.159819,-6.776730,-7.073472
46.899771,-0.145603,-6.753536,-7.154729
46.933012,-0.194386,-6.754733,-7.188099
46.966338,-0.202916,-6.724505,-7.209498
46.999683,-0.199773,-6.722560,-7.175679
47.033001,-0.207255,-6.787355,-7.041000
47.066318,-0.205160,-6.787654,-6.997903
47.099563,-0.193039,-6.773289,-7.054169
47.133071,-0.170443,-6.746054,-7.122256
47.166314,-0.207255,-6.722859,-7.074520
47.199661,-0.177477,-6.781220,-7.094273
47.233019,-0.178524,-6.797980,-7.068983
47.266311,-0.228654,-6.768799,-7.061052
47.299665,-0.221322,-6.754134,-7.025138
47.332991,-0.203664,-6.780023,-7.114175
47.365346,-0.175531,-6.814141,-7.081104
47.399761,-0.154282,-6.843172,-7.100109
47.433000,-0.211445,-6.810251,-7.039504
47.466397,-0.181667,-6.816236,-7.035014
47.499748,-0.145603,-6.786158,-7.119413
47.533015,-0.201868,-6.789600,-7.011670
47.566373,-0.212942,-6.758773,-7.012568
47.599713,-0.206358,-6.765208,-7.032919
47.633027,-0.141712,-6.833744,-7.053869
47.666386,-0.146052,-6.849158,-7.060902
47.699877,-0.125999,-6.868462,-7.076166
47.732996,-0.169097,-6.815787,-7.035164
47.766388,-0.194237,-6.790198,-7.008378
47.799791,-0.218928,-6.803517,-6.988326
47.833134,-0.177177,-6.791395,-7.057760
47.866430,-0.142460,-6.837785,-7.067936
47.899698,-0.161914,-6.823718,-7.047884
47.933005,-0.146500,-6.812196,-7.050876
47.966371,-0.174484,-6.740667,-7.071228
47.999657,-0.174633,-6.746503,-7.027382
48.032958,-0.171491,-6.768500,-6.975606
48.066393,-0.144106,-6.797980,-7.017955
48.099761,-0.100710,-6.859034,-7.039653
48.133034,-0.141113,-6.799327,-7.135724
48.166382,-0.161914,-6.782267,-7.161014
48.199717,-0.159669,-6.772989,-7.150838
48.233091,-0.142759,-6.754434,-7.132881
48.266371,-0.148745,-6.764759,-7.082301
48.299744,-0.179871,-6.763861,-7.047285
48.333041,-0.153085,-6.750543,-7.048632
48.366323,-0.144106,-6.786906,-7.086192
48.399770,-0.124353,-6.806809,-7.142159
48.433009,-0.159669,-6.775234,-7.121957
48.465442,-0.134978,-6.792144,-7.129738
48.499732,-0.178225,-6.748298,-7.141859
48.533012,-0.184210,-6.731838,-7.138118
48.566385,-0.172688,-6.724655,-7.148294
48.599746,-0.178524,-6.749645,-7.099510
48.632998,-0.172239,-6.753237,-7.098612
48.666312,-0.145603,-6.777479,-7.137071
48.699751,-0.161016,-6.773588,-7.073323
48.733030,-0.181218,-6.758175,-7.046686
48.766376,-0.196631,-6.745156,-7.058059
48.799682,-0.201270,-6.751890,-7.064494
48.833113,-0.163410,-6.786008,-7.143056
48.866383,-0.219077,-6.737374,-7.135125
48.899759,-0.239578,-6.762065,-7.054767
48.933008,-0.164757,-6.771493,-7.139166
48.966120,-0.190346,-6.788852,-7.062549
48.999789,-0.150990,-6.786607,-7.084995
49.032996,-0.197080,-6.752488,-7.079309
49.066269,-0.207106,-6.742163,-7.069282
49.099661,-0.173287,-6.743659,-7.082301
49.133002,-0.145902,-6.773289,-7.118365
49.166239,-0.152935,-6.773289,-7.138118
49.199703,-0.147548,-6.764011,-7.106544
49.232697,-0.166553,-6.741864,-7.097715
49.266316,-0.160567,-6.751890,-7.109536
49.299672,-0.134529,-6.775084,-7.131983
49.333010,-0.162363,-6.754883,-7.093525
49.366314,-0.146500,-6.777479,-7.110734
49.399023,-0.109988,-6.774785,-7.135574
49.432357,-0.161165,-6.680660,-7.136472
49.465599,-0.138420,-6.749645,-7.067487
49.499671,-0.193937,-6.718070,-7.052672
49.532090,-0.117919,-6.808305,-7.057012
49.565415,-0.094574,-6.840478,-7.117019
49.599708,-0.142460,-6.797980,-7.156075
49.632995,-0.193039,-6.783913,-7.089634
49.666364,-0.159819,-6.735279,-7.118515
49.699739,-0.177626,-6.729593,-7.100558
49.733005,-0.144555,-6.742911,-7.066589
49.766387,-0.131985,-6.779574,-7.159368
49.799723,-0.185557,-6.841526,-6.946575
49.833007,-0.060755,-6.836288,-7.210695
49.866376,-0.097567,-6.837186,-7.208899
49.899753,-0.120762,-6.814141,-7.153232
49.933016,-0.192142,-6.741714,-7.165653
49.966365,-0.229253,-6.735728,-7.046387
49.999745,-0.207405,-6.765058,-7.017057
50.033023,-0.169097,-6.735130,-7.065990
50.065933,-0.151439,-6.789450,-7.050427
50.099737,-0.081705,-6.832098,-7.164306
50.132930,-0.147398,-6.840628,-7.031872
50.166395,-0.167002,-6.805462,-7.047884
50.199714,-0.201419,-6.786308,-6.982190
50.233030,-0.189747,-6.807108,-7.030675
50.266318,-0.197379,-6.833146,-7.072724
50.299743,-0.190047,-6.800224,-7.134377
50.333019,-0.223716,-6.815937,-7.048632
50.366317,-0.178973,-6.836438,-7.061351
50.399810,-0.167450,-6.825065,-6.995658
50.433025,-0.160118,-6.834942,-7.004188
50.466383,-0.181667,-6.814889,-7.013316
50.499725,-0.178823,-6.812046,-7.007480
50.533007,-0.160567,-6.847811,-7.072874
50.566378,-0.187203,-6.875495,-7.038606
50.599727,-0.206807,-6.857238,-6.994461
50.633010,-0.228355,-6.819229,-7.002392
50.666367,-0.229253,-6.840029,-7.031273
50.699684,-0.219227,-6.820127,-7.003140
50.733042,-0.209500,-6.838234,-7.019751
50.766378,-0.211146,-6.852151,-7.006283
50.799768,-0.195733,-6.862027,-7.033368
50.833001,-0.190495,-6.843771,-7.030675
50.866379,-0.232545,-6.792293,-7.013466
50.899745,-0.210248,-6.795137,-6.954057
50.933006,-0.190196,-6.861578,-6.973361
50.966348,-0.188101,-6.854545,-7.061202
50.999685,-0.212643,-6.847811,-7.073921
51.033025,-0.217880,-6.801571,-7.072275
51.066440,-0.235837,-6.817583,-6.986680
51.099745,-0.177776,-6.764759,-7.020948
51.133040,-0.196032,-6.816835,-6.911259
51.166344,-0.190495,-6.824916,-6.994611
51.199669,-0.158173,-6.843920,-7.029777
51.233051,-0.156227,-6.863823,-7.065691
51.266388,-0.169246,-6.848858,-7.112829
51.299725,-0.187353,-6.829854,-7.050278
51.333045,-0.214887,-6.788403,-7.072575
51.366269,-0.215635,-6.779723,-7.022893
51.399687,-0.220574,-6.820875,-7.013466
51.432979,-0.189747,-6.810550,-7.060005
51.466351,-0.188101,-6.813094,-7.014812
51.500005,-0.154581,-6.867115,-7.098912
51.532984,-0.151738,-6.816685,-7.119862
51.566407,-0.180020,-6.810251,-7.058359
51.598957,-0.177177,-6.772241,-7.026634
51.632977,-0.239429,-6.763113,-6.992366
51.665624,-0.161315,-6.822970,-7.039204
51.700305,-0.183462,-6.780322,-7.124950
51.732211,-0.211745,-6.759821,-7.120460
51.766363,-0.188849,-6.841227,-7.084247
51.800429,-0.172688,-6.799327,-7.097715
51.832971,-0.197080,-6.825813,-7.029028
51.866387,-0.184659,-6.771643,-7.057311
51.900579,-0.203065,-6.770445,-7.000746
51.932984,-0.189298,-6.768201,-7.041000
51.966407,-0.192291,-6.816835,-7.041000
52.000256,-0.138420,-6.839431,-7.112380
52.033048,-0.173586,-6.822970,-7.123004
52.066381,-0.202766,-6.787804,-7.081703
52.099996,-0.227607,-6.751142,-7.094572
52.133034,-0.224015,-6.721063,-7.099810
52.166423,-0.226410,-6.721213,-7.078261
52.199939,-0.173287,-6.765358,-7.125399
52.232010,-0.150541,-6.792892,-7.088886
52.266386,-0.171491,-6.800524,-7.061052
52.299933,-0.159220,-6.776282,-7.067187
52.333048,-0.194536,-6.747700,-7.104000
52.366394,-0.164757,-6.761916,-7.152634
52.399353,-0.204861,-6.736028,-7.162959
52.432979,-0.252148,-6.705500,-7.128541
52.466397,-0.232246,-6.698767,-7.112679
52.500322,-0.187203,-6.737075,-7.104748
52.533043,-0.160866,-6.774187,-7.152185
52.566406,-0.189598,-6.765208,-7.086491
52.600337,-0.210548,-6.749196,-7.123603
52.633045,-0.220723,-6.733184,-7.143954
52.666405,-0.215037,-6.729144,-7.136622
52.700193,-0.241075,-6.682306,-7.188249
52.733059,-0.240027,-6.701161,-7.120610
52.766395,-0.233144,-6.736028,-7.117916
52.800411,-0.243918,-6.746802,-7.123453
52.833049,-0.273248,-6.745006,-7.063895
52.866399,-0.197529,-6.727797,-7.174781
52.899923,-0.261576,-6.688142,-7.162809
52.932978,-0.214738,-6.691584,-7.218626
52.966373,-0.243170,-6.679463,-7.172985
52.999896,-0.246013,-6.681558,-7.134676
53.032984,-0.266664,-6.679313,-7.101905
53.066411,-0.234490,-6.692182,-7.146947
53.099931,-0.199025,-6.744857,-7.180318
53.133031,-0.236286,-6.724804,-7.208899
53.166443,-0.228205,-6.736626,-7.202914
53.200023,-0.240925,-6.703555,-7.189146
53.233002,-0.241224,-6.705351,-7.221320
53.266421,-0.230899,-6.704752,-7.199921
53.299842,-0.268459,-6.679313,-7.112529
53.333051,-0.259780,-6.702059,-7.058508
53.366402,-0.243469,-6.712085,-7.099061
53.399736,-0.202617,-6.716574,-7.202315
53.433053,-0.199175,-6.777479,-7.174781
53.466412,-0.196780,-6.793191,-7.165353
53.499327,-0.219526,-6.775833,-7.106095
53.533001,-0.228205,-6.732137,-7.122256
53.566352,-0.238681,-6.711785,-7.096218
53.600137,-0.253794,-6.681408,-7.083199
53.633003,-0.215635,-6.755780,-7.053570
53.666326,-0.177177,-6.813842,-7.069282
53.700103,-0.185857,-6.786607,-7.115522
53.733001,-0.180469,-6.796334,-7.049679
53.766393,-0.185557,-6.775833,-7.084845
53.799762,-0.206058,-6.803666,-7.045340
53.833055,-0.240925,-6.755182,-7.030675
53.866343,-0.253196,-6.736477,-7.043544
53.899722,-0.197828,-6.799027,-7.093674
53.933068,-0.176279,-6.823868,-7.183460
53.966337,-0.192142,-6.823868,-7.122705
53.999724,-0.220274,-6.821025,-7.059406
54.032997,-0.197978,-6.809502,-7.033817
54.066341,-0.212044,-6.812645,-6.959295
54.099676,-0.205759,-6.824766,-6.983986
54.133107,-0.197379,-6.807707,-7.007480
54.166337,-0.240626,-6.803517,-7.002691
54.199672,-0.200522,-6.810699,-7.103700
54.233029,-0.202916,-6.801122,-7.119413
54.266369,-0.225512,-6.826412,-7.054917
54.299803,-0.219676,-6.794837,-6.998352
54.333044,-0.236137,-6.796334,-6.959893
54.366372,-0.202317,-6.787804,-6.956901
54.399778,-0.191992,-6.800224,-6.972314
54.433114,-0.187353,-6.847661,-6.972314
54.466388,-0.176429,-6.847661,-7.063895
54.499683,-0.155180,-6.857987,-7.185854
54.532905,-0.214738,-6.813692,-7.171489
54.566404,-0.258284,-6.759522,-7.168196
54.599853,-0.283723,-6.741115,-7.062997
54.633005,-0.257087,-6.742762,-7.009575
54.666462,-0.224315,-6.767153,-7.013166
54.699900,-0.190645,-6.772989,-7.065092
54.733017,-0.199923,-6.798578,-7.050427
54.766340,-0.165804,-6.833744,-7.118665
54.799674,-0.190047,-6.798878,-7.092627
54.833006,-0.181517,-6.790947,-7.080356
54.866392,-0.198576,-6.794089,-7.069432
54.899745,-0.249006,-6.771493,-7.071826
54.933020,-0.247958,-6.766255,-7.107292
54.966416,-0.229103,-6.747550,-7.147995
54.999712,-0.224464,-6.762963,-7.133928
55.032645,-0.207106,-6.789749,-7.093974
55.066336,-0.154432,-6.840628,-7.107142
55.099693,-0.182714,-6.800673,-7.045190
55.133080,-0.216982,-6.772989,-7.025736
55.166344,-0.232246,-6.718370,-7.004487
55.199732,-0.219227,-6.754284,-7.052522
55.233068,-0.202467,-6.783913,-7.105047
55.266337,-0.260678,-6.762065,-7.152185
55.299713,-0.241224,-6.770595,-7.144852
55.332970,-0.236735,-6.760719,-7.111931
55.366203,-0.212194,-6.779723,-7.127793
55.399486,-0.210847,-6.784362,-7.054767
55.433002,-0.267412,-6.731089,-7.047734
55.466343,-0.235089,-6.714180,-7.056264
55.499650,-0.205909,-6.789001,-7.043843
55.532537,-0.186006,-6.809652,-7.110734
55.566440,-0.199773,-6.784512,-7.126446
55.599278,-0.243319,-6.746203,-7.089484
55.633062,-0.249006,-6.730192,-7.133330
55.665805,-0.242122,-6.714329,-7.115073
55.699674,-0.191842,-6.750992,-7.089335
55.733004,-0.174933,-6.775833,-7.091130
55.765599,-0.193937,-6.772540,-7.069133
55.798810,-0.143508,-6.786457,-7.135724
55.832187,-0.172838,-6.774336,-7.116570
55.866342,-0.199175,-6.728994,-7.154579
55.899666,-0.234042,-6.670484,-7.097266
55.933055,-0.215486,-6.714329,-7.113726
55.966346,-0.137971,-6.760868,-7.199472
55.999658,-0.187054,-6.736327,-7.177923
56.032211,-0.193638,-6.760569,-7.129289
56.066329,-0.160717,-6.720165,-7.139315
56.099670,-0.166553,-6.757427,-7.102503
56.132157,-0.134080,-6.739020,-7.126296
56.166419,-0.181816,-6.736626,-7.131833
56.199658,-0.132284,-6.783315,-7.184956
56.232999,-0.157574,-6.776581,-7.183909
56.266340,-0.196481,-6.778975,-7.161313
56.299660,-0.194536,-6.727348,-7.178971
56.333058,-0.221023,-6.727648,-7.105496
56.366371,-0.222818,-6.745904,-7.078411
56.399636,-0.186754,-6.755032,-7.053720
56.432987,-0.150391,-6.785559,-7.090681
56.466414,-0.172987,-6.780322,-7.110285
56.499672,-0.181966,-6.787205,-7.077962
56.533021,-0.193788,-6.765208,-7.079159
56.566409,-0.247809,-6.732885,-7.066739
56.599673,-0.244068,-6.729144,-7.052672
56.632999,-0.234191,-6.777329,-7.060902
56.666446,-0.204412,-6.825514,-7.078710
56.699673,-0.209350,-6.824317,-7.122555
56.732990,-0.239279,-6.823569,-7.094123
56.766412,-0.227308,-6.826113,-7.087090
56.799299,-0.232096,-6.719118,-7.122106
56.832996,-0.235239,-6.745006,-7.039504
56.866429,-0.205011,-6.762514,-7.027831
56.899756,-0.191244,-6.795735,-7.010024
56.932991,-0.164308,-6.838084,-7.036361
56.966419,-0.168199,-6.823569,-7.074071
56.999673,-0.137372,-6.789001,-7.025587
57.032997,-0.194835,-6.805312,-7.058508
57.066423,-0.237184,-6.771643,-7.165204
57.099677,-0.265317,-6.726301,-7.056114
57.133000,-0.256638,-6.728994,-7.106843
57.166338,-0.237034,-6.741864,-7.161313
57.199745,-0.261576,-6.771942,-7.040252
57.233006,-0.200222,-6.809203,-7.102802
57.266344,-0.236885,-6.767004,-7.066589
57.299667,-0.284771,-6.713731,-6.952262
57.332986,-0.229253,-6.728545,-6.991917
57.366440,-0.219676,-6.708942,-7.136921
57.399671,-0.171790,-6.746802,-7.289557
57.433098,-0.239878,-6.733334,-7.250201
57.466412,-0.232695,-6.736776,-7.206355
57.499679,-0.219526,-6.730790,-7.064644
57.532992,-0.229852,-6.757576,-7.046237
57.566406,-0.232994,-6.767153,-7.016458
57.599711,-0.243020,-6.715377,-7.101156
57.632993,-0.230600,-6.718669,-7.158021
57.666404,-0.231198,-6.734681,-7.174481
57.699738,-0.184659,-6.757277,-7.227006
57.733062,-0.228205,-6.743659,-7.081254
57.766398,-0.245863,-6.752937,-7.044891
57.799662,-0.249156,-6.715078,-7.098463
57.833071,-0.253346,-6.665246,-7.159368
57.866146,-0.234640,-6.687693,-7.231495
57.899669,-0.251699,-6.689040,-7.200370
57.932998,-0.210248,-6.740068,-7.223265
57.966340,-0.190196,-6.751441,-7.149491
57.999673,-0.218628,-6.770146,-7.073622
58.032950,-0.233293,-6.698617,-7.130486
58.066397,-0.256189,-6.678415,-7.111332
58.099729,-0.224315,-6.723009,-7.124800
58.133010,-0.232695,-6.677966,-7.193785
58.166365,-0.249754,-6.684850,-7.193486
58.199380,-0.186605,-6.745156,-7.230149
58.232668,-0.166253,-6.726301,-7.223265
58.265964,-0.194685,-6.722410,-7.110734
58.299292,-0.229552,-6.670185,-7.127344
58.332518,-0.265766,-6.672429,-7.045340
58.365854,-0.216982,-6.684550,-7.133629
58.399669,-0.205160,-6.724056,-7.187800
58.433053,-0.194536,-6.741265,-7.220123
58.466399,-0.214289,-6.733334,-7.178223
58.499666,-0.213989,-6.704303,-7.193486
58.533072,-0.231049,-6.708344,-7.122256
58.566385,-0.206507,-6.696372,-7.131534
58.599662,-0.225662,-6.659560,-7.114475
58.633005,-0.189598,-6.701610,-7.186154
58.666362,-0.170743,-6.701011,-7.245412
58.699660,-0.194835,-6.682605,-7.222816
58.733004,-0.191094,-6.694577,-7.135425
58.766359,-0.225213,-6.672280,-7.128391
58.799658,-0.174184,-6.744108,-7.138118
58.833063,-0.191693,-6.698168,-7.195282
58.865606,-0.219676,-6.685448,-7.152783
58.899690,-0.197529,-6.693379,-7.210545
58.932992,-0.195883,-6.687843,-7.214137
58.966352,-0.202617,-6.701610,-7.135574
58.999725,-0.206208,-6.663301,-7.167598
59.033402,-0.234640,-6.670634,-7.147546
59.066327,-0.203814,-6.690835,-7.153082
59.099747,-0.205011,-6.706249,-7.157422
59.133041,-0.204861,-6.719417,-7.175978
59.166335,-0.212493,-6.697420,-7.162660
59.199679,-0.235987,-6.706249,-7.154579
59.233302,-0.211296,-6.717771,-7.222068
59.266335,-0.215785,-6.714479,-7.156225
59.299728,-0.239129,-6.685598,-7.184657
59.333004,-0.224913,-6.702957,-7.163109
59.365407,-0.191693,-6.746353,-7.157871
59.399729,-0.239878,-6.714180,-7.158619
59.433357,-0.263222,-6.675721,-7.099660
59.466329,-0.265467,-6.649833,-7.129439
59.499683,-0.210099,-6.663900,-7.171638
59.533098,-0.187952,-6.737225,-7.172237
59.567015,-0.218329,-6.747251,-7.199921
59.599758,-0.221920,-6.733184,-7.196479
59.633078,-0.234341,-6.712234,-7.144852
59.666809,-0.234939,-6.701759,-7.135425
59.699720,-0.218778,-6.698467,-7.112230
59.733075,-0.263372,-6.712234,-7.076615
59.766746,-0.191244,-6.755182,-7.162959
59.799725,-0.197678,-6.763562,-7.208301
59.833059,-0.221771,-6.762664,-7.171339
59.866378,-0.239878,-6.745754,-7.139764
59.899684,-0.255291,-6.738572,-7.068534
59.933084,-0.268759,-6.722709,-7.081703
59.966365,-0.205909,-6.729294,-7.128092
59.999682,-0.238531,-6.766854,-7.086641
60.033018,-0.226559,-6.754883,-7.094572
60.066290,-0.196780,-6.765058,-7.103401
60.099643,-0.205909,-6.805612,-7.073472
60.133082,-0.207555,-6.746503,-7.078710
60.166351,-0.212343,-6.753685,-7.073921
60.199672,-0.243918,-6.742911,-7.081104
60.233078,-0.228954,-6.754733,-7.105646
60.267092,-0.254692,-6.740367,-7.142607
60.299682,-0.233892,-6.778676,-7.096966
60.333070,-0.215187,-6.779274,-7.087389
60.366929,-0.198726,-6.814590,-7.092627
60.399665,-0.182564,-6.782267,-7.088736
60.433076,-0.236735,-6.756529,-7.032470
60.467015,-0.222070,-6.751890,-7.034266
60.499686,-0.218479,-6.766854,-7.075119
60.532999,-0.196032,-6.769548,-7.073622
60.566916,-0.198875,-6.764609,-7.042197
60.599671,-0.207854,-6.733184,-7.082301
60.633032,-0.237633,-6.747400,-7.052822
60.666856,-0.175232,-6.771643,-7.115073
60.699704,-0.173436,-6.781669,-7.105047
60.733096,-0.178225,-6.757576,-7.127793
60.766716,-0.181367,-6.746054,-7.122855
60.799763,-0.216533,-6.739769,-7.071377
60.833076,-0.210398,-6.715975,-7.133779
60.866348,-0.225811,-6.703854,-7.118066
60.899789,-0.221322,-6.732735,-7.146049
60.933082,-0.183313,-6.760868,-7.170441
60.966606,-0.237633,-6.713432,-7.154729
60.999671,-0.234640,-6.751890,-7.115223
61.033080,-0.205160,-6.742462,-7.129140
61.066624,-0.240177,-6.716724,-7.086042
61.099680,-0.217581,-6.711636,-7.107591
61.133077,-0.248557,-6.682605,-7.198873
61.165960,-0.248856,-6.703705,-7.140213
61.199644,-0.222669,-6.724206,-7.186303
61.233020,-0.238232,-6.739469,-7.174930
61.266914,-0.225662,-6.761018,-7.123154
61.299687,-0.245115,-6.712384,-7.158320
61.333032,-0.262174,-6.705351,-7.136771
61.366711,-0.267262,-6.694128,-7.174930
61.399714,-0.260528,-6.689189,-7.131085
61.433008,-0.262773,-6.692631,-7.100109
61.466421,-0.232096,-6.734531,-7.126446
61.499683,-0.206358,-6.742462,-7.136472
61.533100,-0.236137,-6.728097,-7.183460
61.566640,-0.252448,-6.682306,-7.168196
61.599675,-0.293599,-6.671980,-7.125847
61.633076,-0.240327,-6.724954,-7.129888
61.666445,-0.247659,-6.721812,-7.167748
61.699687,-0.241673,-6.706698,-7.162660
61.733072,-0.258284,-6.719417,-7.175230
61.766701,-0.213391,-6.701310,-7.228951
61.799745,-0.235239,-6.699964,-7.157422
61.833034,-0.227158,-6.700562,-7.139764
61.866604,-0.265317,-6.691135,-7.061351
61.899720,-0.211296,-6.709092,-7.093824
61.933014,-0.198726,-6.730491,-7.159517
61.966541,-0.205609,-6.726002,-7.195581
61.999719,-0.208153,-6.709092,-7.197078
62.033018,-0.213840,-6.696672,-7.210545
62.066469,-0.223417,-6.728845,-7.125399
62.099704,-0.193189,-6.722560,-7.104598
62.132996,-0.220274,-6.692781,-7.093824
62.166477,-0.186305,-6.733484,-7.130486
62.199714,-0.175082,-6.720914,-7.157871
62.233002,-0.192441,-6.715227,-7.170142
62.266433,-0.192142,-6.706249,-7.117019
62.299242,-0.229552,-6.669885,-7.175679
62.333028,-0.198427,-6.693679,-7.155926
62.365797,-0.191842,-6.705500,-7.204560
62.399675,-0.220873,-6.699814,-7.183909
62.433004,-0.219825,-6.732586,-7.128691
62.466755,-0.175980,-6.713282,-7.223864
62.498751,-0.179422,-6.753835,-7.171788
62.533004,-0.188700,-6.739170,-7.162959
62.566358,-0.222968,-6.691434,-7.172835
62.599672,-0.234042,-6.683503,-7.139315
62.632083,-0.230001,-6.703854,-7.141111
62.666316,-0.203963,-6.742762,-7.160116
62.699667,-0.192142,-6.746952,-7.155626
62.733065,-0.204712,-6.752937,-7.133629
62.766326,-0.208153,-6.745455,-7.108788
62.799681,-0.197678,-6.715826,-7.141560
62.833084,-0.242721,-6.677817,-7.095919
62.866391,-0.237483,-6.728396,-7.085743
62.899736,-0.235239,-6.751291,-7.099510
62.932994,-0.240476,-6.668838,-7.191391
62.966348,-0.204562,-6.706099,-7.200070
62.999732,-0.224913,-6.777628,-7.119562
63.033020,-0.209949,-6.786457,-7.152783
63.066384,-0.261127,-6.739769,-7.086192
63.099019,-0.278635,-6.695774,-7.116570
63.133008,-0.220424,-6.727648,-7.153831
63.166393,-0.223118,-6.727648,-7.158320
63.199658,-0.226260,-6.770146,-7.075717
63.233010,-0.239129,-6.747999,-7.095470
63.266404,-0.256488,-6.722560,-7.072724
63.299673,-0.235837,-6.764160,-7.124501
63.333050,-0.233593,-6.739170,-7.153531
63.366279,-0.235388,-6.767004,-7.126895
63.399357,-0.242571,-6.758175,-7.134826
63.433038,-0.252448,-6.757277,-7.129439
63.466617,-0.255291,-6.762365,-7.109836
63.499681,-0.249604,-6.738123,-7.112380
63.533117,-0.272201,-6.710439,-7.107591
63.566330,-0.254094,-6.735130,-7.079458
63.599673,-0.243469,-6.740517,-7.011670
63.633113,-0.213092,-6.713731,-7.084696
63.666533,-0.230001,-6.746652,-7.003290
63.699738,-0.234191,-6.735878,-7.058807
63.733111,-0.194087,-6.731838,-7.141560
63.766389,-0.238830,-6.736177,-7.150389
63.799735,-0.272051,-6.730042,-7.141859
63.833006,-0.257835,-6.747849,-7.136921
63.866402,-0.188101,-6.740966,-7.201716
63.899669,-0.264569,-6.792593,-7.041599
63.933059,-0.209799,-6.754134,-7.115971
63.966329,-0.284172,-6.697420,-7.091579
63.999616,-0.263671,-6.697420,-7.136173
64.032863,-0.198277,-6.757277,-7.199322
64.066419,-0.249754,-6.753087,-7.143356
64.099662,-0.229103,-6.789450,-7.126147
64.133076,-0.293899,-6.729294,-7.097415
64.166320,-0.329514,-6.644446,-7.135724
64.199672,-0.294797,-6.645045,-7.214137
64.233072,-0.316644,-6.660907,-7.160415
64.266320,-0.279084,-6.686346,-7.105346
64.299675,-0.218329,-6.737823,-7.098164
64.333183,-0.217431,-6.748298,-7.147845
64.366326,-0.203514,-6.716125,-7.137520
64.399674,-0.262773,-6.720465,-7.129888
64.433066,-0.224015,-6.672729,-7.180168
64.466315,-0.213092,-6.691733,-7.194384
64.499679,-0.193189,-6.705351,-7.227904
64.533112,-0.217282,-6.739170,-7.144104
64.566333,-0.196631,-6.665097,-7.166101
64.599745,-0.203365,-6.648038,-7.194833
64.633109,-0.198875,-6.643848,-7.186752
64.666325,-0.217581,-6.617361,-7.233740
64.699683,-0.200372,-6.641902,-7.189745
64.733139,-0.189298,-6.642501,-7.180617
64.766322,-0.145303,-6.698318,-7.220422
64.799679,-0.174783,-6.650432,-7.240324
64.833143,-0.178674,-6.640705,-7.260975
64.866320,-0.190944,-6.597907,-7.280728
64.899686,-0.164458,-6.609729,-7.249901
64.933105,-0.166553,-6.605090,-7.240923
64.966329,-0.181068,-6.623646,-7.148444
64.999683,-0.126149,-6.649833,-7.203811
65.033130,-0.128843,-6.615715,-7.211294
65.066328,-0.180769,-6.570523,-7.206655
65.099682,-0.147698,-6.556755,-7.231046
65.133064,-0.161016,-6.568727,-7.218476
65.165982,-0.093976,-6.660608,-7.232244
65.199735,-0.077814,-6.681258,-7.330409
65.233056,-0.162812,-6.624394,-7.316642
65.266330,-0.204412,-6.567679,-7.357345
65.299745,-0.157574,-6.486722,-7.432616
65.333038,-0.258583,-6.556456,-7.242569
65.366390,-0.071230,-6.549572,-7.356148
65.399669,-0.045491,-6.630829,-7.198424
65.433075,0.036064,-6.670634,-7.197078
65.466317,-0.019454,-6.692482,-7.145451
65.499682,-0.089337,-6.679612,-7.191541
65.532964,-0.149044,-6.582195,-7.267859
65.566333,-0.203814,-6.542539,-7.286564
65.599668,-0.143657,-6.516501,-7.337892
65.633085,-0.109539,-6.537601,-7.369765
65.666313,-0.109239,-6.592221,-7.305569
65.699684,-0.109090,-6.633223,-7.242719
65.733079,-0.061803,-6.628584,-7.332953
65.766321,-0.098914,-6.603145,-7.246460
65.799679,-0.106695,-6.544185,-7.199472
65.833202,-0.081855,-6.548076,-7.120610
65.866327,-0.004938,-6.662852,-7.302725
65.899678,0.010176,-6.733484,-7.305569
65.933185,-0.012271,-6.613470,-7.345074
65.966320,-0.042199,-6.599254,-7.222068
65.999674,0.051627,-6.639658,-7.270253
66.033118,0.041002,-6.645344,-7.313200
66.066326,-0.004789,-6.573216,-7.191990
66.099673,-0.052375,-6.464276,-7.255738
66.133192,-0.053423,-6.558252,-7.173733
66.166320,0.053871,-6.667192,-7.234788
66.199695,0.102805,-6.747550,-7.260376
66.233176,0.078712,-6.776880,-7.167748
66.266320,0.028582,-6.651180,-7.248854
66.299672,-0.062251,-6.578304,-7.156674
66.333135,-0.082902,-6.582494,-7.179719
66.366329,-0.056864,-6.637263,-7.158170
66.399678,0.050729,-6.765956,-7.194384
66.433105,0.083650,-6.831799,-7.183610
66.466331,0.031425,-6.741265,-7.101905
66.499680,-0.068836,-6.632774,-7.053720
66.533107,-0.082304,-6.647738,-7.084696
66.566326,-0.171341,-6.698318,-7.007330
66.599686,-0.197080,-6.665396,-7.074370
66.632935,-0.144705,-6.641453,-7.300930
66.666325,-0.112831,-6.695774,-7.332205
66.699745,-0.035465,-6.692182,-7.347469
66.733235,-0.058510,-6.752488,-7.113577
66.766321,-0.021998,-6.767004,-7.143805
66.799687,-0.043097,-6.693679,-7.162510
66.833026,-0.125850,-6.608681,-7.132132
66.866380,-0.142310,-6.581147,-7.164006
66.899732,-0.151588,-6.620952,-7.122256
66.932999,-0.093527,-6.665995,-7.130636
66.966406,-0.078563,-6.707446,-7.167448
66.999712,-0.158771,-6.676021,-7.149192
67.033004,-0.181667,-6.633971,-7.214286
67.066332,-0.192590,-6.654323,-7.294046
67.099686,-0.226410,-6.642650,-7.235835
67.133019,-0.257984,-6.610627,-7.234189
67.166422,-0.284022,-6.630978,-7.131983
67.199729,-0.220574,-6.639209,-7.162360
67.233009,-0.214438,-6.655520,-7.147546
67.266326,-0.268310,-6.666444,-7.124501
67.299512,-0.204263,-6.617959,-7.202764
67.333066,-0.151888,-6.620653,-7.292849
67.365992,-0.075420,-6.736776,-7.323526
67.399666,-0.224764,-6.636964,-7.240923
67.432568,-0.332507,-6.558401,-7.132881
67.466339,-0.327269,-6.538948,-7.167897
67.499704,-0.179422,-6.561544,-7.252745
67.532995,-0.002394,-6.776132,-7.229251
67.566311,-0.011822,-6.755481,-7.184059
67.599702,-0.121510,-6.649085,-7.125399
67.633029,-0.229702,-6.547328,-7.185256
67.666372,-0.211894,-6.495701,-7.390865
67.699773,-0.214887,-6.497197,-7.433962
67.732543,-0.229403,-6.571570,-7.296141
67.766325,-0.211296,-6.597009,-7.282524
67.799747,-0.212942,-6.646092,-7.214436
67.833036,-0.106695,-6.633373,-7.374853
67.866329,-0.134529,-6.557653,-7.398497
67.899668,-0.167750,-6.454100,-7.330858
67.933039,-0.119116,-6.561544,-7.227305
67.966402,0.046389,-6.714629,-7.263519
67.999785,-0.024093,-6.744108,-7.066888
68.032942,-0.085296,-6.681109,-7.096667
68.066391,-0.174933,-6.573216,-7.142757
68.099715,-0.258433,-6.491062,-7.283272
68.133020,-0.297640,-6.519644,-7.379492
68.166432,-0.329663,-6.453801,-7.340435
68.199760,-0.365727,-6.485675,-7.244065
68.232994,-0.332058,-6.631128,-7.194085
68.266396,-0.289559,-6.607035,-7.256935
68.299778,-0.180619,-6.565135,-7.358542
68.333006,0.020052,-6.638161,-7.426031
68.366407,0.121959,-6.729294,-7.302725
68.399826,0.035765,-6.742013,-7.075567
68.433000,-0.095323,-6.588031,-7.012268
68.466390,-0.135128,-6.437340,-7.237631
68.499864,-0.161165,-6.407861,-7.348067
68.533012,-0.089187,-6.550021,-7.355250
68.566407,0.026786,-6.659410,-7.387723
68.599958,0.054320,-6.750693,-7.303773
68.632991,0.075121,-6.629033,-7.475264
68.666402,0.003591,-6.440483,-7.521204
68.699861,-0.163111,-6.361621,-7.363181
68.733007,-0.174334,-6.482832,-7.176726
68.766384,-0.116871,-6.590575,-7.142607
68.799748,-0.060905,-6.653874,-7.159966
68.833058,0.046240,-6.622748,-7.177774
68.865821,0.112232,-6.621251,-7.271600
68.899681,0.146949,-6.638909,-7.241671
68.933066,0.068985,-6.490912,-7.191840
68.966378,0.000150,-6.504081,-7.084546
68.999773,0.020351,-6.631876,-7.247806
69.033116,0.036962,-6.642501,-7.536917
69.066397,0.011822,-6.663301,-7.531679
69.099771,0.008679,-6.646691,-7.414658
69.133047,-0.032772,-6.599703,-7.147396
69.166397,-0.124653,-6.529071,-6.999399
69.199690,-0.171491,-6.403970,-7.083199
69.233040,-0.106845,-6.316878,-7.457606
69.266473,-0.047736,-6.353690,-7.603059
69.299749,0.015713,-6.490164,-7.552480
69.333072,-0.011074,-6.614966,-7.465387
69.365614,-0.079760,-6.605689,-7.337892
69.399762,-0.116123,-6.575311,-7.296291
69.433001,-0.140515,-6.478791,-7.328015
69.466359,-0.116123,-6.436742,-7.333552
69.499684,-0.067190,-6.469214,-7.431568
69.533039,-0.107444,-6.420431,-7.439948
69.566140,-0.162512,-6.358179,-7.360488
69.599435,-0.142011,-6.436891,-7.361535
69.632688,-0.137971,-6.563938,-7.204560
69.666330,-0.085745,-6.575311,-7.281925
69.699162,-0.085745,-6.573964,-7.326369
69.732990,-0.109988,-6.511713,-7.315744
69.766335,-0.095023,-6.531017,-7.367371
69.799004,-0.124503,-6.482383,-7.319336
69.832982,-0.191094,-6.501088,-7.261274
69.865365,-0.258882,-6.468915,-7.240324
69.899757,-0.286716,-6.427913,-7.326070
69.932993,-0.208752,-6.450210,-7.429323
69.965937,-0.146949,-6.506326,-7.480651
69.999754,-0.151888,-6.552266,-7.317690
70.032993,-0.169994,-6.545831,-7.292400
70.066358,-0.175830,-6.485376,-7.277137
70.099679,-0.175232,-6.498844,-7.256935
70.133043,-0.109090,-6.521589,-7.395504
70.166385,-0.131387,-6.514107,-7.402238
70.199723,-0.132584,-6.505577,-7.406578
70.233002,-0.123455,-6.564986,-7.395055
70.266397,-0.128843,-6.575012,-7.383682
70.299751,-0.215037,-6.485076,-7.327117
70.332991,-0.240177,-6.382870,-7.334450
70.366183,-0.219077,-6.322564,-7.381138
70.399706,-0.120163,-6.416091,-7.371711
70.432995,-0.074672,-6.550171,-7.344625
70.465736,-0.059708,-6.606437,-7.269205
70.499716,-0.080358,-6.650881,-7.275191
70.533042,-0.093078,-6.552266,-7.387872
70.566387,-0.147847,-6.510516,-7.381288
70.599677,-0.161315,-6.475350,-7.425882
70.633011,-0.173137,-6.506326,-7.367521
70.666084,-0.172838,-6.538499,-7.285068
70.699865,-0.177626,-6.526976,-7.270103
70.733005,-0.201868,-6.474901,-7.246160
70.766353,-0.186904,-6.504979,-7.203363
70.799723,-0.160567,-6.552865,-7.234339
70.833010,-0.131835,-6.579651,-7.263070
70.866379,-0.111484,-6.597159,-7.279232
70.899692,-0.175232,-6.563789,-7.271899
70.933047,-0.199175,-6.477145,-7.321132
70.965397,-0.194536,-6.452005,-7.363331
70.999709,-0.171192,-6.518447,-7.341782
71.032805,-0.142460,-6.527126,-7.374853
71.066407,-0.156975,-6.537152,-7.283870
71.099706,-0.092629,-6.523984,-7.349414
71.133040,-0.067489,-6.541941,-7.310208
71.166434,-0.084698,-6.514406,-7.315445
71.199705,-0.068536,-6.481335,-7.322478
71.233016,-0.098016,-6.477295,-7.372160
71.266370,-0.106246,-6.480437,-7.412414
71.299690,-0.125999,-6.480437,-7.388620
71.332983,-0.187054,-6.439735,-7.364528
71.366409,-0.194087,-6.422226,-7.346421
71.399714,-0.134978,-6.471010,-7.402837
71.433033,-0.073924,-6.512162,-7.440098
71.466082,-0.065244,-6.537152,-7.393110
71.499685,-0.093527,-6.502435,-7.326519
71.533001,-0.111783,-6.481186,-7.363480
71.566378,-0.139168,-6.414295,-7.363181
71.599659,-0.141413,-6.469214,-7.378744
71.632998,-0.131985,-6.527126,-7.401191
71.666425,-0.122258,-6.494504,-7.445036
71.699680,-0.094874,-6.493606,-7.427228
71.733029,-0.123007,-6.487022,-7.418549
71.766351,-0.162063,-6.449312,-7.343578
71.799675,-0.137672,-6.454998,-7.305419
71.833005,-0.098315,-6.506176,-7.284469
71.866340,-0.077066,-6.543587,-7.377397
71.899756,-0.130638,-6.504829,-7.381288
71.932999,-0.146052,-6.496300,-7.377846
71.966365,-0.145154,-6.459039,-7.399844
71.999686,-0.165355,-6.504530,-7.298685
72.032995,-0.147099,-6.516352,-7.294345
72.066392,-0.173735,-6.496150,-7.292400
72.099702,-0.144705,-6.538948,-7.330260
72.133020,-0.140365,-6.496749,-7.394008
72.166369,-0.137821,-6.509618,-7.331307
72.199055,-0.118816,-6.564686,-7.309160
72.232982,-0.125999,-6.557055,-7.293747
72.266341,-0.130638,-6.538499,-7.291802
72.299694,-0.104600,-6.519345,-7.381737
72.333022,-0.187203,-6.520242,-7.203811
72.366506,-0.099213,-6.501387,-7.356298
72.399691,-0.103553,-6.515005,-7.322029
72.433084,-0.121211,-6.511114,-7.315595
72.466382,-0.124054,-6.503931,-7.238828
72.499772,-0.081555,-6.558701,-7.317390
72.533005,-0.091581,-6.569176,-7.319934
72.566375,-0.098914,-6.560197,-7.355250
72.599683,-0.167301,-6.506326,-7.312901
72.633027,-0.158023,-6.535656,-7.293148
72.666417,-0.148446,-6.492858,-7.308562
72.699685,-0.156826,-6.531166,-7.214885
72.733040,-0.155629,-6.515304,-7.241970
72.766425,-0.181517,-6.491212,-7.249004
72.799693,-0.141413,-6.555259,-7.302127
72.833022,-0.134080,-6.556157,-7.389967
72.866393,-0.163260,-6.530568,-7.386974
72.899678,-0.178524,-6.528922,-7.353305
72.933014,-0.222519,-6.485226,-7.310657
72.966364,-0.220125,-6.493157,-7.278932
72.999704,-0.172538,-6.490613,-7.360338
73.033001,-0.192441,-6.488967,-7.374255
73.066386,-0.180320,-6.492409,-7.370364
73.099690,-0.119565,-6.490164,-7.424834
73.133089,-0.177477,-6.502136,-7.375602
73.166438,-0.163709,-6.456046,-7.334599
73.199668,-0.184659,-6.439884,-7.321580
73.233085,-0.151139,-6.486423,-7.339687
73.266095,-0.135726,-6.500190,-7.379343
73.299668,-0.200073,-6.455746,-7.356447
73.333056,-0.171790,-6.492409,-7.363181
73.366375,-0.129292,-6.493606,-7.422589
73.399746,-0.150391,-6.500939,-7.391164
73.433057,-0.144106,-6.503782,-7.307514
73.466333,-0.188999,-6.433300,-7.322628
73.499681,-0.179422,-6.457093,-7.317390
73.533050,-0.143059,-6.458440,-7.442941
73.566328,-0.157424,-6.472207,-7.423487
73.599672,-0.122857,-6.516651,-7.374255
73.633039,-0.131536,-6.484927,-7.381587
73.666354,-0.155329,-6.482532,-7.326668
73.699713,-0.095771,-6.471309,-7.372908
73.733008,-0.131387,-6.447067,-7.351359
73.765947,-0.131087,-6.425070,-7.342381
73.799692,-0.114477,-6.481934,-7.351659
73.832992,-0.119116,-6.480138,-7.390865
73.866510,-0.142011,-6.451556,-7.393708
73.899663,-0.179422,-6.422825,-7.409720
73.933061,-0.162063,-6.408310,-7.406877
73.966408,-0.125999,-6.456495,-7.395354
73.999698,-0.150391,-6.449761,-7.367670
74.033062,-0.147847,-6.440932,-7.407775
74.066373,-0.145453,-6.445271,-7.402388
74.099803,-0.122707,-6.448713,-7.454014
74.133008,-0.125550,-6.473554,-7.408373
74.166398,-0.166104,-6.404269,-7.372758
74.199839,-0.180918,-6.406813,-7.374554
74.233007,-0.139916,-6.420580,-7.395953
74.265654,-0.130040,-6.446319,-7.447430
74.299740,-0.122408,-6.458889,-7.416604
74.332999,-0.147249,-6.444224,-7.381288
74.366211,-0.159370,-6.423274,-7.389668
74.399709,-0.157275,-6.414744,-7.371262
74.433001,-0.142011,-6.432402,-7.428276
74.466389,-0.156826,-6.426566,-7.377996
74.499692,-0.126897,-6.432851,-7.414509
74.533002,-0.130489,-6.416091,-7.447430
74.566362,-0.164757,-6.419084,-7.446083
74.599695,-0.179272,-6.389305,-7.401490
74.632996,-0.149942,-6.380775,-7.433962
74.666384,-0.120014,-6.448414,-7.388920
74.699714,-0.129591,-6.401576,-7.454763
74.733008,-0.144705,-6.403970,-7.406727
74.765469,-0.129441,-6.444523,-7.386376
74.799695,-0.055069,-6.445122,-7.480651
74.833010,-0.069883,-6.518596,-7.446981
74.866172,-0.104451,-6.461732,-7.475563
74.899771,-0.166852,-6.357880,-7.415706
74.933081,-0.162512,-6.383170,-7.424086
74.966385,-0.141712,-6.402473,-7.423338
74.999685,-0.112382,-6.450659,-7.381587
75.033027,-0.094125,-6.444972,-7.408224
75.066386,-0.095771,-6.480138,-7.356597
75.099711,-0.086793,-6.509917,-7.364827
75.133002,-0.106097,-6.477295,-7.409720
75.166330,-0.146800,-6.442428,-7.400891
75.199704,-0.142011,-6.440782,-7.413012
75.232988,-0.134379,-6.431504,-7.420794
75.266396,-0.118368,-6.437640,-7.376948
75.299708,-0.130040,-6.463977,-7.260825
75.332996,-0.091432,-6.494205,-7.298535
75.365746,-0.072577,-6.514406,-7.358393
75.399701,-0.065095,-6.501238,-7.451022
75.433035,-0.118816,-6.460834,-7.429323
75.466147,-0.130040,-6.462480,-7.407625
75.499667,-0.133930,-6.432552,-7.346421
75.532716,-0.142610,-6.450808,-7.352706
75.566368,-0.120612,-6.439884,-7.280578
75.599667,-0.119116,-6.461582,-7.327865
75.632621,-0.094574,-6.503482,-7.371112
75.666331,-0.072726,-6.489566,-7.423487
75.699670,-0.084698,-6.527425,-7.358542
75.733077,-0.078862,-6.502136,-7.358991
75.766332,-0.111634,-6.467568,-7.330260
75.799657,-0.134679,-6.458141,-7.357644
75.833127,-0.116721,-6.438388,-7.412863
75.865495,-0.135128,-6.459338,-7.346122
75.899654,-0.125102,-6.506625,-7.352257
75.933081,-0.106845,-6.506026,-7.358842
75.965643,-0.150990,-6.500639,-7.301229
75.999660,-0.183163,-6.423423,-7.295842
76.033037,-0.201120,-6.439884,-7.247956
76.066395,-0.154132,-6.435395,-7.333702
76.099693,-0.114776,-6.490164,-7.374404
76.132993,-0.130339,-6.485974,-7.415107
76.166389,-0.104002,-6.517250,-7.443988
76.199730,-0.135577,-6.464875,-7.368568
76.233007,-0.158173,-6.458141,-7.349264
76.266392,-0.162662,-6.427165,-7.312602
76.299659,-0.222968,-6.380925,-7.318887
76.332994,-0.175980,-6.422675,-7.388022
76.366349,-0.162662,-6.452155,-7.414958
76.399717,-0.112083,-6.492559,-7.457905
76.432987,-0.117170,-6.491062,-7.450124
76.465471,-0.146351,-6.463378,-7.426031
76.499655,-0.178374,-6.428511,-7.412713
76.533003,-0.184510,-6.409357,-7.351210
76.566250,-0.192291,-6.382571,-7.382186
76.599641,-0.161315,-6.390203,-7.392810
76.632998,-0.112980,-6.426716,-7.462843
76.666382,-0.104900,-6.444972,-7.437554
76.699662,-0.096520,-6.443775,-7.420644
76.732998,-0.129890,-6.418485,-7.386077
76.766547,-0.145603,-6.394243,-7.390267
76.799674,-0.101907,-6.405616,-7.465088
76.833153,-0.152636,-6.388706,-7.484242
76.866386,-0.165804,-6.377633,-7.458204
76.899772,-0.107743,-6.402773,-7.466884
76.933075,-0.096071,-6.438088,-7.429473
76.965631,-0.050579,-6.448414,-7.398497
76.999665,-0.112083,-6.391101,-7.380689
77.033060,-0.115075,-6.401426,-7.389967
77.065694,-0.096071,-6.397535,-7.444138
77.099659,-0.121061,-6.408459,-7.442043
77.133073,-0.134529,-6.415193,-7.434411
77.166492,-0.116871,-6.381972,-7.455062
77.199667,-0.138719,-6.410255,-7.392511
77.233041,-0.087840,-6.436592,-7.465387
77.266391,-0.094874,-6.422675,-7.466285
77.299658,-0.120313,-6.406663,-7.362433
77.333043,-0.096520,-6.396488,-7.420794
77.366509,-0.121959,-6.399481,-7.382934
77.399663,-0.162662,-6.316129,-7.463143
77.433068,-0.138270,-6.335583,-7.492173
77.466436,-0.169097,-6.352493,-7.436207
77.499674,-0.063748,-6.440932,-7.451171
77.532993,-0.113729,-6.419682,-7.418549
77.565454,-0.136624,-6.400079,-7.413461
77.599744,-0.146500,-6.337379,-7.482447
77.632829,-0.151139,-6.296526,-7.537665
77.666350,-0.112531,-6.350398,-7.524945
77.699662,-0.124353,-6.347854,-7.443839
77.733085,-0.091282,-6.379279,-7.419297
77.766396,-0.076168,-6.373892,-7.486936
77.799691,-0.070781,-6.361172,-7.561159
77.833073,-0.107593,-6.311790,-7.549187
77.866500,-0.147249,-6.274080,-7.538712
77.899657,-0.131087,-6.286949,-7.552629
77.932996,-0.125700,-6.312987,-7.490976
77.966495,-0.123007,-6.336780,-7.443240
77.999659,-0.069584,-6.374790,-7.529584
78.032388,-0.113579,-6.350547,-7.457157
78.065801,-0.094425,-6.341270,-7.484841
78.099676,-0.119864,-6.344113,-7.469278
78.133051,-0.143807,-6.337678,-7.436656
78.166395,-0.126448,-6.301016,-7.473618
78.199720,-0.117470,-6.317776,-7.479005
78.232995,-0.055966,-6.372096,-7.556221
78.266392,-0.082004,-6.344262,-7.513123
78.299701,-0.041002,-6.400528,-7.524347
78.333001,-0.062551,-6.378830,-7.514171
78.366360,-0.094574,-6.362519,-7.489779
78.399698,-0.118068,-6.345160,-7.448478
78.432998,-0.168348,-6.258218,-7.399544
78.466352,-0.171192,-6.267795,-7.421392
78.499736,-0.116572,-6.377333,-7.486637
78.533004,-0.094125,-6.406663,-7.546045
78.566367,-0.123904,-6.401576,-7.510131
78.599764,-0.074821,-6.436293,-7.488881
78.632991,-0.122408,-6.458590,-7.516565
78.668235,-0.207405,-6.372246,-7.341184
78.699685,-0.243020,-6.330196,-7.347319
78.733013,-0.305272,-6.323312,-7.271151
78.766360,-0.257087,-6.389305,-7.293747
78.799298,-0.253645,-6.429708,-7.216531
78.833022,-0.156377,-6.476547,-7.361834
78.866355,-0.117769,-6.440333,-7.505492
78.899791,-0.108940,-6.520392,-7.492473
78.933058,-0.112831,-6.447217,-7.577171
78.966523,-0.145154,-6.419682,-7.477059
78.999664,-0.227008,-6.367008,-7.363929
79.032996,-0.232695,-6.375538,-7.331906
79.066339,-0.175830,-6.386911,-7.404932
79.099664,-0.167301,-6.459637,-7.387872
79.133113,-0.140964,-6.453352,-7.377098
79.166345,-0.178973,-6.420580,-7.412114
79.199757,-0.144405,-6.415642,-7.422739
79.233060,-0.161016,-6.449312,-7.404333
79.266389,-0.144106,-6.455148,-7.417951
79.299673,-0.169695,-6.446319,-7.388920
79.333044,-0.160118,-6.442129,-7.406278
79.366414,-0.187054,-6.421628,-7.434561
79.399667,-0.205160,-6.387659,-7.376050
79.432996,-0.196182,-6.410405,-7.348217
79.465968,-0.136774,-6.425518,-7.390267
79.499682,-0.184061,-6.427913,-7.271600
79.533139,-0.136325,-6.465623,-7.319037
79.566406,-0.137223,-6.435096,-7.390416
79.599688,-0.180170,-6.391699,-7.454164
79.633084,-0.143657,-6.382122,-7.450124
79.666398,-0.182564,-6.394692,-7.395354
79.699656,-0.121061,-6.424022,-7.497411
79.733068,-0.178524,-6.394093,-7.478107
79.766388,-0.190495,-6.403371,-7.429024
79.799658,-0.157125,-6.418036,-7.420046
79.833000,-0.104151,-6.403671,-7.423338
79.865769,-0.111334,-6.421328,-7.398946
79.899648,-0.130189,-6.396787,-7.413012
79.933014,-0.140664,-6.366709,-7.399993
79.966464,-0.126149,-6.410704,-7.404483
79.999673,-0.117619,-6.401725,-7.468231
80.033028,-0.101308,-6.421478,-7.471373
80.066418,-0.105049,-6.408310,-7.415107
80.099664,-0.120912,-6.423274,-7.423637
80.133030,-0.133033,-6.419383,-7.446532
80.166404,-0.128992,-6.376585,-7.452817
80.199704,-0.130189,-6.350847,-7.464938
80.233080,-0.105498,-6.419533,-7.440547
80.266377,-0.118068,-6.407711,-7.388920
80.299708,-0.079011,-6.390502,-7.469278
80.333080,-0.063149,-6.410255,-7.429623
80.366465,-0.106396,-6.410105,-7.426480
80.399667,-0.104002,-6.361322,-7.430670
80.432977,-0.156826,-6.364015,-7.410768
80.465715,-0.115524,-6.394243,-7.423038
80.499653,-0.093228,-6.430157,-7.457307
80.533098,-0.114776,-6.400827,-7.497561
80.565512,-0.160717,-6.395590,-7.406578
80.599664,-0.112831,-6.361022,-7.458953
80.633053,-0.136474,-6.383618,-7.439798
80.666329,-0.106396,-6.413996,-7.408673
80.699736,-0.136624,-6.368804,-7.401490
80.732992,-0.105049,-6.378680,-7.373955
80.766381,-0.110137,-6.386911,-7.459102
80.799653,-0.100710,-6.384067,-7.503397
80.833039,-0.130638,-6.403970,-7.448478
80.866359,-0.118966,-6.388856,-7.494268
80.899114,-0.140515,-6.380177,-7.442642
80.932996,-0.128094,-6.364165,-7.425882
80.966377,-0.134828,-6.355635,-7.422141
80.999765,-0.078862,-6.361172,-7.481998
81.033059,-0.109239,-6.366858,-7.473318
81.066402,-0.115375,-6.335134,-7.491276
81.099656,-0.090235,-6.312538,-7.525693
81.133014,-0.113130,-6.350996,-7.541256
81.166396,-0.159519,-6.328550,-7.442043
81.199666,-0.140515,-6.275876,-7.528686
81.232979,-0.115973,-6.341868,-7.521503
81.266410,-0.109090,-6.379428,-7.513273
81.299651,-0.112831,-6.322714,-7.561009
81.333049,-0.142161,-6.342766,-7.462843
81.366378,-0.113729,-6.344262,-7.447281
81.398874,-0.103403,-6.365212,-7.482746
81.433038,-0.084848,-6.361771,-7.431418
81.466414,-0.111484,-6.356533,-7.477957
81.499706,-0.122258,-6.365961,-7.499955
81.532981,-0.106546,-6.375538,-7.542453
81.566408,-0.133033,-6.346956,-7.549487
81.599693,-0.150541,-6.340821,-7.447879
81.633077,-0.150242,-6.377034,-7.377397
81.666380,-0.143957,-6.417438,-7.337742
81.699657,-0.107893,-6.423872,-7.396851
81.732989,-0.084399,-6.397984,-7.435459
81.766480,-0.065394,-6.390951,-7.504145
81.799672,-0.144256,-6.374790,-7.379941
81.833059,-0.136624,-6.393645,-7.373507
81.866366,-0.130788,-6.355785,-7.391763
81.898725,-0.163859,-6.327951,-7.465537
81.933034,-0.164757,-6.291588,-7.496214
81.966405,-0.128693,-6.375238,-7.487983
81.999674,-0.073325,-6.414894,-7.511477
82.033040,-0.059408,-6.418635,-7.501002
82.065888,-0.108491,-6.392747,-7.431568
82.099635,-0.092928,-6.407112,-7.387124
82.133034,-0.098315,-6.379428,-7.371561
82.166390,-0.117170,-6.362668,-7.421542
82.199668,-0.085895,-6.350547,-7.449525
82.233044,-0.108341,-6.317177,-7.513423
82.266390,-0.079909,-6.369851,-7.527489
82.299666,-0.034119,-6.415043,-7.507587
82.333061,-0.020052,-6.412051,-7.476611
82.366393,-0.046539,-6.405317,-7.434860
82.399445,-0.109389,-6.368953,-7.370214
82.433028,-0.114178,-6.356533,-7.423936
82.466407,-0.149194,-6.340671,-7.430371
82.499718,-0.137672,-6.350248,-7.458803
82.532452,-0.128992,-6.342916,-7.508036
82.566335,-0.124653,-6.402473,-7.423188
82.599656,-0.090235,-6.383170,-7.470326
82.632230,-0.134828,-6.362369,-7.377697
82.666349,-0.114926,-6.324061,-7.465537
82.699686,-0.104451,-6.346208,-7.376050
82.732989,-0.073475,-6.378830,-7.439649
82.766450,-0.022446,-6.438537,-7.480501
82.799700,-0.096819,-6.398134,-7.470176
82.832988,-0.116871,-6.358179,-7.510879
82.866358,-0.128693,-6.332441,-7.474067
82.899812,-0.111185,-6.349201,-7.419447
82.933111,-0.116273,-6.390801,-7.396552
82.966594,-0.118816,-6.362668,-7.425582
82.999655,-0.115075,-6.360125,-7.391015
83.032975,-0.083800,-6.387659,-7.489480
83.066356,-0.097717,-6.378082,-7.495466
83.099677,-0.128693,-6.379877,-7.491724
83.132764,-0.151588,-6.338875,-7.515368
83.166344,-0.194685,-6.340521,-7.444587
83.199641,-0.140066,-6.354139,-7.457756
83.233089,-0.125251,-6.347106,-7.467183
83.266347,-0.071529,-6.381972,-7.512974
83.299666,-0.094724,-6.380925,-7.458204
83.333024,-0.106246,-6.351146,-7.427677
83.366357,-0.074522,-6.386761,-7.442642
83.399720,-0.103553,-6.356683,-7.426929
83.433089,-0.112980,-6.338127,-7.467931
83.466352,-0.146052,-6.317476,-7.452069
83.499664,-0.093826,-6.334386,-7.492173
83.533046,-0.092928,-6.386761,-7.476611
83.566382,-0.103553,-6.354737,-7.469877
83.599631,-0.082154,-6.392298,-7.434561
83.633045,-0.081256,-6.376585,-7.437404
83.666396,-0.089935,-6.351146,-7.449824
83.699721,-0.100560,-6.366858,-7.468530
83.733036,-0.140066,-6.313586,-7.492323
83.766384,-0.136025,-6.326904,-7.436955
83.799723,-0.092180,-6.397984,-7.433214
83.833103,-0.089786,-6.391998,-7.453566
83.866495,-0.077814,-6.375687,-7.467333
83.899671,-0.099213,-6.368654,-7.463292
83.933015,-0.125401,-6.334536,-7.461796
83.966423,-0.118218,-6.327203,-7.460599
83.999681,-0.082304,-6.364763,-7.447131
84.033045,-0.083201,-6.370450,-7.476162
84.066433,-0.110586,-6.356084,-7.436057
84.099720,-0.071529,-6.355785,-7.512375
84.133049,-0.101458,-6.365063,-7.433813
84.166378,-0.094574,-6.333039,-7.468829
84.199725,-0.120463,-6.302961,-7.432915
84.232741,-0.116871,-6.311042,-7.447879
84.266465,-0.041301,-6.401276,-7.499656
84.299731,-0.073325,-6.361920,-7.570586
84.333013,-0.106695,-6.389155,-7.528986
84.366369,-0.098166,-6.361771,-7.578068
84.399705,-0.120912,-6.328849,-7.499057
84.433009,-0.106695,-6.353391,-7.432466
84.466380,-0.131835,-6.315681,-7.405081
84.499727,-0.112831,-6.323612,-7.472720
84.533077,-0.095023,-6.370001,-7.489031
84.566514,-0.068686,-6.392747,-7.499656
84.599717,-0.046838,-6.433001,-7.511777
84.633004,-0.080807,-6.408160,-7.430670
84.666454,-0.127047,-6.360573,-7.406428
84.699677,-0.119415,-6.345609,-7.454613
84.733056,-0.119265,-6.335583,-7.435010
84.766391,-0.111035,-6.334087,-7.452967
84.799785,-0.092629,-6.380476,-7.401939
84.833003,-0.027983,-6.468316,-7.451171
84.866402,-0.042648,-6.480886,-7.452069
84.899681,-0.094125,-6.350547,-7.443240
84.932999,-0.107294,-6.359825,-7.407625
84.966420,-0.125102,-6.378531,-7.455212
84.999752,-0.112681,-6.388706,-7.433364
85.032989,-0.121959,-6.371348,-7.490228
85.066319,-0.090833,-6.409058,-7.463592
85.099682,-0.077216,-6.450509,-7.448029
85.132998,-0.082304,-6.400079,-7.470176
85.166437,-0.095771,-6.399780,-7.334599
85.199738,-0.131237,-6.363117,-7.393858
85.233048,-0.101458,-6.390502,-7.402388
85.266371,-0.071679,-6.421179,-7.480052
85.299667,-0.108491,-6.450359,-7.449525
85.333009,-0.101009,-6.437041,-7.412264
85.366419,-0.117919,-6.399331,-7.359440
85.399704,-0.128843,-6.435844,-7.364977
85.433002,-0.111035,-6.403222,-7.374255
85.466404,-0.106097,-6.372395,-7.449376
85.499720,-0.120163,-6.330944,-7.480052
85.532991,-0.168947,-6.274529,-7.495466
85.566462,-0.150690,-6.247443,-7.531978
85.599716,-0.197828,-6.304757,-7.398497
85.632998,-0.181068,-6.380775,-7.322478
85.666362,-0.128244,-6.436143,-7.412563
85.699717,-0.131237,-6.433150,-7.457007
85.732995,-0.165355,-6.366709,-7.519259
85.766368,-0.162063,-6.345908,-7.501152
85.799727,-0.151738,-6.405466,-7.499506
85.832997,-0.100261,-6.376735,-7.530781
85.866405,-0.115973,-6.430756,-7.408373
85.899741,-0.139916,-6.377633,-7.439349
85.933007,-0.192142,-6.282161,-7.400742
85.966381,-0.196332,-6.280215,-7.455511
85.999716,-0.147099,-6.321217,-7.504594
86.033011,-0.157574,-6.350847,-7.504893
86.066399,-0.147698,-6.387659,-7.439050
86.099718,-0.127496,-6.405167,-7.482297
86.133009,-0.128693,-6.387360,-7.449525
86.166370,-0.090983,-6.364614,-7.506838
86.199711,-0.152785,-6.322564,-7.466136
86.233004,-0.133033,-6.314932,-7.487834
86.266343,-0.104900,-6.326455,-7.507587
86.299768,-0.137522,-6.339025,-7.465537
86.333010,-0.136923,-6.345160,-7.454613
86.366326,-0.128094,-6.329597,-7.437554
86.399703,-0.099213,-6.348602,-7.470774
86.433008,-0.068088,-6.334386,-7.580612
86.466421,-0.102356,-6.344262,-7.482746
86.499674,-0.107294,-6.334087,-7.468231
86.533046,-0.086045,-6.343365,-7.505192
86.566431,-0.076617,-6.345160,-7.516266
86.599705,-0.101159,-6.331992,-7.459851
86.633100,-0.127795,-6.301913,-7.470326
86.666368,-0.090833,-6.313137,-7.456109
86.699666,-0.084698,-6.327802,-7.495017
86.733052,-0.073924,-6.343963,-7.468380
86.766417,-0.054620,-6.336631,-7.506539
86.799679,-0.110736,-6.342616,-7.460299
86.833030,-0.130189,-6.291738,-7.513423
86.866410,-0.099213,-6.284405,-7.616078
86.899752,-0.111334,-6.256572,-7.634035
86.933120,-0.101757,-6.267496,-7.596325
86.966510,-0.088140,-6.309096,-7.489031
86.999772,-0.064047,-6.339025,-7.425882
87.033013,-0.064197,-6.327802,-7.474964
87.066854,-0.098315,-6.260313,-7.489629
87.099700,-0.097268,-6.257320,-7.514470
87.133033,-0.062850,-6.318823,-7.539610
87.166046,-0.098615,-6.267496,-7.571933
87.199750,-0.132284,-6.317626,-7.533625
87.233059,-0.137522,-6.281861,-7.555472
87.266332,-0.145004,-6.283358,-7.512226
87.299674,-0.122558,-6.285303,-7.508784
87.333003,-0.174035,-6.262258,-7.486637
87.366331,-0.124503,-6.288595,-7.507587
87.399735,-0.107144,-6.295030,-7.511178
87.433021,-0.111035,-6.322265,-7.536468
87.466401,-0.113579,-6.327353,-7.529135
87.499694,-0.124204,-6.295479,-7.528088
87.532840,-0.142161,-6.268842,-7.537665
87.566381,-0.126748,-6.253878,-7.529135
87.599743,-0.111334,-6.277971,-7.510729
87.632992,-0.138120,-6.270488,-7.489480
87.666374,-0.085596,-6.278868,-7.528237
87.699723,-0.072427,-6.296975,-7.522401
87.732993,-0.070183,-6.280814,-7.497261
87.766346,-0.100410,-6.247294,-7.424086
87.799771,-0.144106,-6.238166,-7.421093
87.832985,-0.166253,-6.263006,-7.418100
87.866393,-0.157873,-6.192973,-7.640470
87.899788,-0.101608,-6.200605,-7.800887
87.932993,-0.054919,-6.211379,-7.754498
87.966349,-0.035615,-6.258218,-7.672942
87.999714,-0.023494,-6.311939,-7.578667
88.032951,-0.130189,-6.249239,-7.459252
88.066354,-0.270106,-6.183695,-7.432167
88.099723,-0.259182,-6.126233,-7.474665
88.133013,-0.095921,-6.120845,-7.826925
88.166352,-0.021100,-6.216467,-7.846528
88.199722,0.046539,-6.339025,-7.750756
88.232989,0.041301,-6.407262,-7.607698
88.266361,0.057313,-6.400079,-7.586448
88.299726,-0.001796,-6.290241,-7.503846
88.332990,-0.054769,-6.151073,-7.468530
88.366373,-0.021100,-6.124138,-7.500703
88.399742,-0.011223,-6.180254,-7.558316
88.433014,-0.014366,-6.296826,-7.424984
88.466395,0.018705,-6.378830,-7.447729
88.499728,-0.026038,-6.368953,-7.448178
88.532997,-0.085596,-6.332141,-7.558166
88.566393,-0.126149,-6.239961,-7.634634
88.599715,-0.124054,-6.236819,-7.566097
88.632999,-0.068387,-6.192375,-7.498159
88.666397,-0.014216,-6.271686,-7.477808
88.699440,0.036214,-6.385265,-7.411815
88.733000,0.091432,-6.466820,-7.422889
88.766369,0.111783,-6.517399,-7.521204
88.799717,0.047287,-6.400079,-7.496513
88.832986,-0.049083,-6.300716,-7.476760
88.866373,-0.117320,-6.245947,-7.425882
88.899706,-0.112980,-6.281263,-7.406727
88.933001,-0.068387,-6.335284,-7.455511
88.966327,-0.045791,-6.370600,-7.468380
88.999713,-0.035316,-6.389305,-7.485290
89.033003,-0.025739,-6.347555,-7.521354
89.066426,-0.049083,-6.381075,-7.464789
89.099772,-0.131387,-6.290989,-7.432466
89.133027,-0.130189,-6.265700,-7.378295
89.166401,-0.116273,-6.290241,-7.464340
89.199181,-0.090534,-6.344412,-7.521653
89.233035,-0.097866,-6.366260,-7.546793
89.266410,-0.061803,-6.366410,-7.572681
89.299715,-0.055817,-6.385713,-7.584952
89.332999,-0.069883,-6.358478,-7.558166
89.366352,-0.087541,-6.344113,-7.411965
89.399758,-0.149942,-6.290092,-7.385328
89.432988,-0.140515,-6.294431,-7.334450
89.466342,-0.147398,-6.326156,-7.371561
89.499704,-0.117320,-6.336930,-7.574627
89.532990,-0.159519,-6.348303,-7.581660
89.566346,-0.147099,-6.351445,-7.563254
89.599708,-0.144106,-6.348901,-7.528088
89.633023,-0.142310,-6.385265,-7.402238
89.666371,-0.133033,-6.369851,-7.373207
89.698919,-0.139018,-6.353391,-7.421841
89.733014,-0.125102,-6.324510,-7.469877
89.766157,-0.138420,-6.320320,-7.520456
89.799641,-0.125251,-6.352792,-7.450423
89.833011,-0.141113,-6.364614,-7.427378
89.866395,-0.105648,-6.395740,-7.454463
89.899668,-0.153833,-6.370899,-7.505342
89.932986,-0.171940,-6.302362,-7.520157
89.966400,-0.175980,-6.319422,-7.462993
89.999706,-0.129292,-6.336032,-7.438901
90.033031,-0.120912,-6.365512,-7.451022
90.066358,-0.110436,-6.362070,-7.509233
90.099725,-0.121211,-6.372695,-7.486038
90.133043,-0.109389,-6.338127,-7.523299
90.166381,-0.151888,-6.321666,-7.497261
90.198781,-0.178973,-6.316279,-7.431718
90.233027,-0.175531,-6.335733,-7.404782
90.266422,-0.158173,-6.368953,-7.425283
90.299703,-0.159070,-6.342916,-7.501451
90.333004,-0.154282,-6.331992,-7.547691
90.366339,-0.167151,-6.336780,-7.496214
90.399721,-0.144405,-6.326754,-7.466884
90.433001,-0.162213,-6.321517,-7.427677
90.466355,-0.146052,-6.334236,-7.453117
90.499708,-0.154282,-6.312837,-7.477508
90.532995,-0.081705,-6.376136,-7.459102
90.566353,-0.080059,-6.433599,-7.520905
90.599727,-0.161465,-6.324958,-7.544548
90.633003,-0.181068,-6.279467,-7.535420
90.666327,-0.172239,-6.290391,-7.537964
90.699748,-0.152486,-6.314783,-7.495166
90.733006,-0.109239,-6.322863,-7.449675
90.766394,-0.127945,-6.339773,-7.422141
90.799678,-0.100560,-6.361771,-7.451321
90.832806,-0.105498,-6.333638,-7.578667
90.865485,-0.101308,-6.327652,-7.578368
90.899665,-0.124353,-6.336780,-7.491126
90.933061,-0.144106,-6.306103,-7.430670
90.966329,-0.111933,-6.333189,-7.452668
90.999667,-0.130638,-6.358778,-7.454912
91.033092,-0.112083,-6.340372,-7.462245
91.066321,-0.117470,-6.342167,-7.480202
91.099670,-0.100710,-6.342018,-7.521204
91.133058,-0.118966,-6.341120,-7.529584
91.166350,-0.146800,-6.286650,-7.442342
91.199752,-0.143508,-6.310443,-7.453865
91.232996,-0.072128,-6.400079,-7.481998
91.266324,-0.127047,-6.317776,-7.545297
91.299332,-0.173586,-6.306852,-7.483644
91.333093,-0.182115,-6.301016,-7.454912
91.366400,-0.133930,-6.323612,-7.461497
91.399824,-0.093976,-6.332441,-7.446233
91.433028,-0.076318,-6.322115,-7.482596
91.466360,-0.106995,-6.385115,-7.406578
91.499662,-0.103553,-6.348452,-7.446383
91.533035,-0.129292,-6.299818,-7.568641
91.566345,-0.114626,-6.337528,-7.570137
91.599690,-0.214738,-6.389006,-7.353754
91.633032,-0.140964,-6.288595,-7.551731
91.666406,-0.129142,-6.304308,-7.584952
91.699653,-0.118517,-6.313586,-7.574327
91.733066,-0.151139,-6.291588,-7.484093
91.766387,-0.111035,-6.273332,-7.484392
91.799807,-0.086045,-6.316878,-7.483943
91.833037,-0.055069,-6.375238,-7.546344
91.866330,-0.089486,-6.305804,-7.512226
91.899692,-0.113280,-6.303709,-7.498608
91.932494,-0.084848,-6.326754,-7.493071
91.966320,-0.120463,-6.287548,-7.555472
91.999652,-0.137821,-6.280664,-7.531978
92.033056,-0.119116,-6.320020,-7.526292
92.066363,-0.091581,-6.335583,-7.527489
92.099778,-0.069734,-6.344861,-7.439948
92.133064,-0.082004,-6.310293,-7.479603
92.166345,-0.095323,-6.307899,-7.396552
92.199664,-0.089337,-6.304457,-7.460150
92.233080,-0.067489,-6.305355,-7.509083
92.266375,-0.061803,-6.379279,-7.493221
92.299664,-0.067339,-6.364315,-7.466884
92.333080,-0.096969,-6.358628,-7.475563
92.366349,-0.106995,-6.371946,-7.471373
92.399729,-0.110736,-6.335583,-7.459551
92.433096,-0.127945,-6.286949,-7.487086
92.466376,-0.068088,-6.296975,-7.506240
92.499698,-0.044743,-6.372246,-7.434561
92.533035,-0.027834,-6.394243,-7.464340
92.566374,-0.069584,-6.327652,-7.511926
92.599731,-0.083800,-6.253429,-7.570287
92.633059,-0.065843,-6.261360,-7.644660
92.666380,-0.119265,-6.232778,-7.541107
92.699727,-0.092779,-6.290541,-7.502798
92.733083,-0.066591,-6.330046,-7.442791
92.766344,0.006734,-6.374490,-7.501152
92.799641,-0.015862,-6.348003,-7.479304
92.833139,-0.054919,-6.316279,-7.499506
92.866327,-0.073026,-6.292935,-7.554724
92.899690,-0.066741,-6.280514,-7.559213
92.933025,-0.073175,-6.270788,-7.575076
92.965417,-0.060605,-6.302362,-7.504294
92.999647,-0.043396,-6.342916,-7.443839
93.032947,-0.044294,-6.351146,-7.416155
93.066294,0.004938,-6.389903,-7.537366
93.099651,-0.035765,-6.368505,-7.484841
93.133043,-0.075121,-6.330196,-7.537665
93.166386,-0.045491,-6.321068,-7.580912
93.199701,-0.081256,-6.337080,-7.550085
93.233050,-0.116273,-6.322115,-7.462843
93.266349,-0.148595,-6.335284,-7.326070
93.299691,-0.073924,-6.373443,-7.364827
93.333124,-0.057762,-6.402623,-7.438302
93.366393,-0.067788,-6.340821,-7.578817
93.399660,-0.110287,-6.344412,-7.539012
93.433100,-0.086194,-6.368804,-7.527938
93.466408,-0.069135,-6.383618,-7.425133
93.499652,-0.077814,-6.412649,-7.374255
93.533052,-0.112980,-6.361920,-7.378145
93.566382,-0.110586,-6.336032,-7.446981
93.599722,-0.100560,-6.384816,-7.457456
93.633115,-0.095173,-6.390053,-7.525693
93.666337,-0.095323,-6.378381,-7.503995
93.699709,-0.106246,-6.390352,-7.469278
93.733138,-0.128394,-6.374191,-7.424086
93.766370,-0.114028,-6.380775,-7.391314
93.799721,-0.140814,-6.343963,-7.394307
93.833076,-0.111634,-6.350248,-7.402537
93.866397,-0.079460,-6.439286,-7.404782
93.899775,-0.082304,-6.423274,-7.437105
93.933023,-0.075570,-6.435245,-7.456409
93.966322,-0.118068,-6.441381,-7.445934
93.999855,-0.145902,-6.416839,-7.417053
94.033008,-0.192291,-6.350398,-7.419297
94.066433,-0.183911,-6.394243,-7.390117
94.098723,-0.143059,-6.417737,-7.391314
94.133013,-0.095323,-6.450509,-7.462544
94.165916,-0.129890,-6.440932,-7.385029
94.199689,-0.151139,-6.404419,-7.431718
94.232999,-0.169097,-6.372096,-7.408972
94.266361,-0.152785,-6.396488,-7.352257
94.299715,-0.150242,-6.396188,-7.340286
94.333030,-0.123605,-6.428362,-7.317241
94.366415,-0.114926,-6.394991,-7.413761
94.399735,-0.146201,-6.395740,-7.438751
94.433111,-0.127645,-6.403521,-7.488133
94.466365,-0.155629,-6.362220,-7.459102
94.499666,-0.129740,-6.409507,-7.432765
94.533038,-0.100710,-6.397086,-7.429922
94.566359,-0.107893,-6.416091,-7.389369
94.599712,-0.138120,-6.427314,-7.344625
94.633019,-0.138719,-6.368205,-7.470774
94.666393,-0.124204,-6.393794,-7.455511
94.699773,-0.173735,-6.355186,-7.477658
94.733001,-0.151439,-6.338576,-7.479753
94.766404,-0.140964,-6.379578,-7.396851
94.799837,-0.105947,-6.389155,-7.464789
94.833076,-0.088888,-6.390352,-7.445335
94.866427,-0.125999,-6.362668,-7.468979
94.899709,-0.126299,-6.375089,-7.505192
94.933084,-0.122707,-6.364763,-7.495615
94.966415,-0.122707,-6.367457,-7.488732
94.999707,-0.124353,-6.371797,-7.482896
95.032980,-0.131536,-6.340970,-7.457756
95.066537,-0.098465,-6.385414,-7.469877
95.099650,-0.122857,-6.341868,-7.474815
95.132202,-0.112382,-6.322863,-7.470026
95.166323,-0.095023,-6.348901,-7.489330
95.199502,-0.108940,-6.347555,-7.454463
95.233003,-0.083950,-6.389754,-7.432616
95.266386,-0.103403,-6.337528,-7.426929
95.299693,-0.115524,-6.363716,-7.397749
95.333087,-0.100560,-6.364315,-7.462095
95.366372,-0.138420,-6.330495,-7.527340
95.399749,-0.130189,-6.323163,-7.543800
95.433075,-0.133182,-6.346956,-7.511926
95.466380,-0.121061,-6.358778,-7.473618
95.499656,-0.101009,-6.363566,-7.386675
95.533065,-0.126897,-6.316429,-7.490228
95.566361,-0.134230,-6.306852,-7.462843
95.599700,-0.119565,-6.318524,-7.508335
95.633053,-0.098315,-6.334685,-7.518211
95.666421,-0.063149,-6.355486,-7.525245
95.699003,-0.085147,-6.360424,-7.449376
95.733018,-0.083650,-6.347255,-7.472570
95.766359,-0.106695,-6.289493,-7.487983
95.799656,-0.127346,-6.276624,-7.518810
95.833012,-0.096819,-6.261510,-7.568342
95.866371,-0.065993,-6.313586,-7.475563
95.899656,-0.069285,-6.374490,-7.475114
95.933008,-0.084548,-6.318224,-7.462245
95.966366,-0.076318,-6.339025,-7.459252
95.999674,-0.056415,-6.351595,-7.535271
96.033028,-0.130788,-6.250885,-7.570137
96.066399,-0.137821,-6.259564,-7.568042
96.099132,-0.105049,-6.295628,-7.546943
96.133065,-0.077365,-6.345460,-7.470475
96.166418,-0.052525,-6.357132,-7.460449
96.198848,-0.090235,-6.297723,-7.471822
96.233044,-0.090235,-6.320320,-7.450423
96.266366,-0.088439,-6.311191,-7.550235
96.299654,-0.085895,-6.291887,-7.537366
96.332985,-0.093676,-6.303410,-7.549936
96.365951,-0.107743,-6.318673,-7.492323
96.399633,-0.088289,-6.322265,-7.530632
96.433088,-0.091432,-6.353091,-7.493371
96.466378,-0.105498,-6.304158,-7.499656
96.499669,-0.095472,-6.299369,-7.500853
96.533072,-0.068836,-6.291139,-7.571783
96.566362,-0.041301,-6.287997,-7.547242
96.599666,-0.050879,-6.296377,-7.492922
96.633005,-0.064047,-6.361771,-7.380240
96.666382,-0.064646,-6.432252,-7.349564
96.698682,-0.118966,-6.336930,-7.437254
96.733024,-0.128992,-6.301165,-7.641667
96.766444,-0.077665,-6.253728,-7.781433
96.799682,-0.072128,-6.271386,-7.700626
96.833044,-0.043097,-6.324809,-7.510729
96.866389,-0.080807,-6.356683,-7.332205
96.899712,-0.106396,-6.396338,-7.229400
96.933050,-0.111484,-6.380626,-7.400742
96.966391,-0.114028,-6.345460,-7.548439
96.999721,-0.107294,-6.291289,-7.715590
97.033022,-0.139467,-6.267196,-7.677581
97.066360,-0.111484,-6.275876,-7.594230
97.099717,-0.152486,-6.303111,-7.406727
97.133012,-0.139018,-6.358329,-7.310357
97.166394,-0.079460,-6.380476,-7.381737
97.199700,-0.086643,-6.387659,-7.398048
97.233006,-0.135726,-6.323462,-7.409271
97.266358,-0.129441,-6.309695,-7.498458
97.299727,-0.088140,-6.316279,-7.624907
97.333003,-0.038159,-6.353241,-7.626553
97.366379,-0.065095,-6.396637,-7.419746
97.399750,-0.024990,-6.466970,-7.369167
97.433003,-0.040254,-6.456644,-7.362134
97.466142,-0.064047,-6.359975,-7.422290
97.499528,-0.146650,-6.302512,-7.453117
97.532954,-0.166104,-6.319422,-7.441893
97.566338,-0.175232,-6.365961,-7.444437
97.599653,-0.154731,-6.367756,-7.502199
97.633013,-0.151888,-6.337229,-7.535271
97.666443,-0.145603,-6.337678,-7.544249
97.699770,-0.147997,-6.319871,-7.526891
97.732989,-0.133332,-6.349201,-7.393858
97.766348,-0.138270,-6.354288,-7.306018
97.799791,-0.107893,-6.339773,-7.349564
97.832993,-0.114626,-6.324958,-7.412264
97.866346,-0.080658,-6.316878,-7.562955
97.899704,-0.090983,-6.288595,-7.506389
97.932988,-0.078114,-6.328400,-7.516715
97.966349,-0.052974,-6.374490,-7.504444
97.999084,-0.082004,-6.368654,-7.482447
98.032910,-0.082304,-6.362070,-7.479903
98.066355,-0.075270,-6.349949,-7.514021
98.099656,-0.069285,-6.300118,-7.551133
98.133058,-0.081555,-6.317327,-7.511627
98.165491,-0.108341,-6.286500,-7.527040
98.199655,-0.065095,-6.324360,-7.453266
98.233007,-0.055966,-6.341419,-7.501302
98.266419,-0.063748,-6.320020,-7.510430
98.299678,-0.071679,-6.341718,-7.457307
98.332996,-0.097268,-6.302811,-7.485888
98.366365,-0.097866,-6.312987,-7.498009
98.399765,-0.103104,-6.322265,-7.517014
98.432983,-0.097567,-6.275127,-7.542453
98.466391,-0.082304,-6.297574,-7.529734
98.498848,-0.097717,-6.301165,-7.543501
98.532984,-0.085596,-6.320918,-7.495166
98.566367,-0.080358,-6.282161,-7.467632
98.599551,-0.056565,-6.303709,-7.498608
98.632991,-0.017059,-6.329897,-7.528537
98.666445,-0.081555,-6.273930,-7.542902
98.699717,-0.109688,-6.272733,-7.530332
98.732990,-0.074073,-6.298472,-7.515667
98.766372,-0.067938,-6.319272,-7.527639
98.799757,-0.046539,-6.331692,-7.524796
98.833002,-0.138270,-6.289044,-7.488732
98.866316,-0.117619,-6.290989,-7.514171
98.899697,-0.088439,-6.284405,-7.570137
98.933141,-0.077814,-6.279168,-7.585251
98.966040,-0.103703,-6.306103,-7.502050
98.998746,-0.114178,-6.297723,-7.432466
99.033103,-0.092779,-6.287398,-7.523449
99.066483,-0.111933,-6.279018,-7.517463
99.098985,-0.116721,-6.286201,-7.566845
99.133311,-0.113429,-6.295928,-7.512076
99.166351,-0.129890,-6.309844,-7.479304
99.199662,-0.143508,-6.310443,-7.517313
99.233069,-0.153983,-6.252681,-7.555622
99.266400,-0.162961,-6.274379,-7.522551
99.299651,-0.103703,-6.310742,-7.562206
99.333045,-0.141413,-6.286351,-7.492772
99.366458,-0.097717,-6.302362,-7.477059
99.399700,-0.091731,-6.299369,-7.535420
99.433051,-0.099213,-6.334386,-7.508933
99.466368,-0.101458,-6.293234,-7.519708
99.499645,-0.140365,-6.235921,-7.524197
99.532803,-0.125850,-6.236669,-7.550235
99.566350,-0.091881,-6.275127,-7.575824
99.598808,-0.067639,-6.306702,-7.542902
99.632994,-0.050579,-6.345609,-7.521204
99.665689,-0.113280,-6.319571,-7.459102
99.698822,-0.088289,-6.303111,-7.514021
99.733064,-0.082453,-6.265401,-7.560560
99.766333,-0.140664,-6.262857,-7.529435
99.799709,-0.156377,-6.231132,-7.577769
99.833048,-0.087691,-6.289194,-7.562955
99.866333,-0.114926,-6.312089,-7.457456
99.899703,-0.090235,-6.300118,-7.481399
99.933044,-0.146800,-6.252232,-7.481249
99.966345,-0.093676,-6.284854,-7.530183
99.999698,-0.110137,-6.233676,-7.581959
100.033043,-0.127047,-6.212277,-7.621465
100.066323,-0.079460,-6.296975,-7.568641
100.098753,-0.048784,-6.321966,-7.532727
100.133023,-0.039955,-6.321068,-7.540358
100.166428,-0.106995,-6.262707,-7.499805
100.199725,-0.105049,-6.257469,-7.533924
