time_tick,gyr_X_value,gyr_Y_value,gyr_Z_value
0.021553,0.042218,0.168479,0.062287
0.051547,-0.051285,0.196605,0.032647
0.081541,-0.061241,0.182347,-0.046866
0.121533,-0.007073,0.204057,-0.055362
0.151526,0.006275,0.163027,-0.066175
0.181520,-0.005995,0.037880,-0.088367
0.221512,0.028366,-0.022417,-0.035064
0.251506,0.050842,-0.039539,-0.001543
0.281499,-0.010273,-0.077928,-0.008383
0.321491,-0.048252,-0.042603,-0.014801
0.351485,-0.010049,0.033583,-0.003145
0.381479,0.002014,0.054539,-0.020055
0.421470,0.009615,0.011928,-0.036559
0.451464,-0.013068,-0.009111,-0.040274
0.481458,-0.026023,-0.034134,-0.037497
0.521450,0.018582,-0.022339,-0.018191
0.551444,0.024190,-0.040252,-0.004286
0.581440,0.022021,-0.042163,0.004711
0.621432,-0.026273,-0.024853,0.013468
0.651426,-0.002467,0.007985,0.020643
0.681420,0.014728,0.041800,0.020046
0.721411,-0.013356,0.010639,-0.025310
0.751405,-0.005883,-0.020345,-0.055502
0.781399,0.019421,-0.049419,-0.073776
0.821391,0.004954,-0.076736,-0.075694
0.851385,0.032281,-0.043326,-0.043027
0.881378,-0.005175,-0.017425,-0.024845
0.921370,-0.007550,0.019161,-0.001271
0.951364,-0.016577,0.044370,-0.008520
0.981358,-0.017448,0.046963,-0.038361
1.021349,-0.002012,-0.009752,-0.055425
1.051343,-0.003163,-0.014035,-0.051047
1.081337,0.015287,0.030233,-0.021013
1.121329,0.007097,0.038156,0.017038
1.151322,0.009800,0.016345,0.018858
1.181316,0.007545,0.025227,0.006685
1.221308,0.001375,0.017707,-0.014359
1.251302,0.020062,0.002618,-0.014649
1.281296,0.009012,-0.005125,-0.000849
1.321287,0.026462,-0.014346,0.016345
1.351281,0.009848,-0.014492,0.022617
1.381275,0.009565,-0.000007,0.029521
1.421266,0.008699,0.020572,0.020051
1.451260,0.027836,0.035626,0.008682
1.481254,0.008892,-0.000390,0.002088
1.521246,0.019008,-0.018064,0.003940
1.551240,0.003103,-0.015498,0.027057
1.581233,-0.001150,-0.021509,0.030510
1.621225,0.017553,-0.026224,0.025612
1.651219,-0.006178,-0.011448,0.030150
1.681213,0.009718,0.013822,0.016194
1.721204,-0.019515,0.005460,0.000080
1.751198,-0.002264,0.023006,-0.012985
1.781192,0.004822,0.029328,0.005638
1.821184,0.012871,-0.006863,0.014422
1.851177,-0.003259,-0.011239,0.024005
1.881171,0.017488,0.017135,0.031867
1.921163,0.006855,0.019870,0.030823
1.951157,0.004216,0.006591,0.022484
1.981150,0.019986,0.005899,0.017858
2.021142,0.024817,0.004451,0.022852
2.051136,0.015332,0.008609,0.029748
2.081130,0.023162,-0.008826,0.021779
2.121121,0.018021,-0.008278,0.024607
2.151115,0.017211,0.014096,0.017354
2.181109,0.015737,0.030247,0.028877
2.221101,0.022313,0.010342,0.016825
2.251094,0.021490,-0.004764,0.010927
2.281088,0.009516,0.007294,0.005331
2.321080,0.011264,0.017899,0.009579
2.351074,0.010052,0.017064,0.009672
2.381067,0.002432,0.009979,-0.003066
2.421059,0.023774,0.001024,0.006501
2.451053,-0.007941,0.016265,0.008016
2.481047,0.040351,0.006302,0.001880
2.521038,-0.010808,-0.006199,-0.000151
2.551032,-0.010402,0.042907,0.000330
2.581023,-0.007777,0.055972,0.003096
2.621015,-0.003321,0.020038,-0.011996
2.651008,-0.009392,0.001092,-0.002571
2.681002,0.005089,0.000683,0.011974
2.720994,0.003784,-0.006676,0.012813
2.750988,0.011743,0.001954,0.012689
2.780981,0.014328,0.001667,0.004621
2.820973,0.004743,0.014982,0.009834
2.850967,0.017979,0.002325,0.003369
2.880961,0.007443,0.004998,0.002207
2.920952,0.005479,-0.014542,0.003837
2.950946,0.009547,-0.020923,0.007171
2.980940,-0.010092,-0.022179,-0.011930
3.020932,-0.021030,-0.045495,-0.002388
3.050925,0.023499,-0.041927,0.008281
3.080919,-0.006773,-0.023338,0.008224
3.120911,-0.008135,-0.009523,0.010904
3.150905,-0.004906,-0.004120,0.001940
3.180898,0.005458,-0.018323,0.001088
3.220890,0.012970,-0.009494,0.006613
3.250884,0.002946,0.003462,0.007670
3.280878,0.006911,0.022726,0.008186
3.320869,0.000766,0.021463,0.017034
3.350863,-0.000804,0.007833,0.018784
3.380857,0.010031,-0.000407,0.019854
3.420849,0.000716,-0.036147,0.007069
3.450842,-0.003488,-0.043170,-0.002047
3.480836,0.005556,-0.033491,0.000120
3.520828,-0.028825,-0.027078,-0.011041
3.550822,0.023112,-0.016176,-0.015644
3.580818,0.013052,0.000594,0.004739
3.620810,0.018266,-0.016670,-0.011264
3.650804,0.006323,-0.038522,-0.017724
3.680798,0.000173,-0.026279,-0.040879
3.720790,-0.010689,-0.003520,-0.031548
3.750783,-0.012145,-0.023921,-0.027891
3.780777,-0.005904,-0.037814,-0.010431
3.820769,0.002368,-0.058036,-0.000033
3.850763,0.004987,-0.057875,0.008079
3.880756,-0.007008,-0.042157,0.001197
3.920748,-0.059216,-0.043328,-0.021870
3.950742,-0.015486,-0.044753,-0.032893
3.980736,-0.003739,-0.012049,-0.014679
4.026978,0.002965,-0.010524,-0.002396
4.056972,0.004875,-0.022689,0.002798
4.096963,0.018312,-0.033435,0.009636
4.126957,0.008652,-0.016910,0.010906
4.156951,0.025095,0.001575,0.002080
4.196943,0.006713,-0.012256,-0.014668
4.226936,0.013986,-0.005044,-0.014129
4.256930,0.020365,0.000065,-0.006225
4.296922,0.016384,-0.015469,-0.000458
4.326916,-0.004905,-0.024750,-0.019394
4.356909,0.012308,-0.004087,-0.008033
4.386903,0.011624,0.023661,-0.004634
4.426895,-0.001716,-0.000031,-0.017186
4.456889,0.005206,-0.001563,-0.020589
4.496880,0.001622,0.018756,-0.002417
4.526874,-0.006833,0.005260,-0.001444
4.546868,0.002507,0.006764,-0.000874
4.586856,0.001272,0.010979,-0.002189
4.616849,0.006783,-0.004530,-0.010427
4.646843,-0.017255,0.005891,-0.006152
4.686835,-0.003059,0.014816,0.009625
4.716829,0.011350,0.018982,0.013131
4.746823,0.015486,-0.000771,0.009481
4.786814,0.018062,-0.017076,0.010502
4.816808,-0.006973,0.025602,0.013362
4.846802,-0.015625,0.040043,0.007370
4.886793,-0.002747,0.079259,0.019540
4.916787,-0.005000,0.065872,0.022910
4.946781,-0.003882,0.014218,0.007004
4.986773,0.013806,0.005127,0.002381
5.016766,0.003027,-0.010781,0.003147
5.046760,0.015860,-0.020046,0.003638
5.086752,-0.013460,0.012963,0.019085
5.116746,0.001299,0.016720,0.010297
5.146739,-0.004413,0.007498,0.011782
5.186731,0.020557,0.023749,-0.008748
5.216725,0.025283,-0.004947,-0.013284
5.246719,-0.000969,-0.035761,-0.029317
5.286710,0.013385,-0.015701,-0.011504
5.316704,-0.016973,-0.002989,-0.004784
5.346698,-0.005940,-0.009342,0.005569
5.386689,-0.000363,0.005564,0.010383
5.416683,0.000346,0.028690,0.010005
5.446677,-0.009103,0.031209,-0.001374
5.486669,0.018156,0.008150,-0.003227
5.516662,0.024999,0.004760,0.005748
5.546656,0.017329,-0.025376,0.002775
5.586649,0.006601,-0.004763,0.009376
5.616643,-0.009745,0.043761,0.007274
5.646636,-0.000809,0.041874,0.003618
5.686628,0.020501,0.017930,-0.002631
5.716622,0.022503,0.001856,0.001223
5.746615,0.033661,-0.002017,0.009059
5.786607,0.030057,0.001058,0.009480
5.816601,0.023620,0.003604,0.018626
5.846595,0.017493,0.017451,0.023487
5.886586,0.031145,0.031219,0.036460
5.916580,0.039384,0.008362,0.016623
5.946574,0.028446,-0.033030,0.004138
5.986565,0.025996,-0.046428,0.007240
6.016559,-0.003239,-0.036171,0.014460
6.046553,0.004505,-0.007297,0.023852
6.086545,0.002943,-0.000860,0.032223
6.116538,0.007428,0.004136,0.019920
6.146532,-0.002088,-0.004370,0.010405
6.186524,0.035751,-0.005776,0.010681
6.216517,0.012314,-0.000116,-0.001083
6.246511,0.011282,-0.007640,-0.007420
6.286503,0.003385,0.000853,0.000503
6.316497,0.004759,0.008677,0.007883
6.346490,-0.014255,-0.004574,0.011741
6.386482,0.011162,-0.004275,0.015052
6.416476,0.015658,-0.009215,0.014856
6.446469,0.001024,-0.022283,-0.001209
6.486461,0.003919,-0.008635,-0.000707
6.516455,0.001072,0.004734,0.007984
6.546449,-0.005351,-0.000560,-0.004593
6.586440,0.006585,-0.027297,-0.006482
6.616434,0.015484,-0.016258,0.006830
6.646428,0.035579,-0.025818,0.006644
6.686419,0.013717,-0.035106,0.000327
6.716413,0.013180,-0.011027,-0.006105
6.746407,0.013743,0.005869,0.006040
6.786398,-0.010252,0.006337,0.004243
6.816392,0.003944,0.000731,0.006447
6.846386,0.020120,-0.009380,0.001750
6.886378,0.023456,-0.029099,0.002831
6.916371,0.017136,-0.032205,0.013295
6.946365,0.015157,-0.018577,0.017716
6.986357,0.004356,-0.002519,0.020993
7.016350,0.010396,0.005667,0.020617
7.046344,0.011510,-0.004975,0.017907
7.086336,-0.002550,0.007567,0.005140
7.116329,0.002121,0.028486,0.006775
7.146323,0.000039,0.030552,-0.007259
7.186315,0.012032,0.008106,-0.007108
7.216308,0.010568,-0.014525,-0.012328
7.246302,0.007842,-0.020046,-0.006053
7.286294,0.004402,-0.008570,0.009771
7.316288,-0.008211,0.014415,0.011083
7.346281,0.004873,0.010463,0.020800
7.386273,-0.005560,-0.006946,0.006636
7.416267,0.019143,0.000356,0.006265
7.446260,0.009542,-0.014704,0.001549
7.486252,0.018211,-0.016160,0.006288
7.516246,0.009072,-0.024058,0.015100
7.546240,0.009010,-0.011130,0.019291
7.586230,0.019207,0.003168,0.021132
7.616224,0.019657,-0.010406,0.016779
7.646218,0.028309,-0.018046,0.013522
7.686209,0.014174,-0.033251,0.014910
7.716203,0.023586,-0.014321,-0.000051
7.746197,0.034528,-0.001021,0.012585
7.786188,0.018033,-0.014689,-0.002218
7.816182,0.015024,-0.000305,-0.006110
7.846176,0.034066,0.020425,0.014304
7.886167,0.016067,-0.001437,0.019491
7.916161,0.007132,0.004021,0.021349
7.946155,0.024361,0.039644,0.034113
7.986147,0.018793,0.034717,0.024689
8.027390,0.010387,0.008382,0.013928
8.057383,-0.000367,0.007923,0.002446
8.087377,0.011310,0.023799,0.018561
8.127369,0.013481,0.033585,0.027574
8.157362,0.009428,0.005801,0.018465
8.187356,0.022952,0.004826,0.007190
8.227348,0.012764,0.009157,0.013804
8.257342,0.006870,0.021794,0.011189
8.287335,0.001764,0.040384,0.004797
8.327327,0.008380,0.031611,0.013478
8.357321,0.008089,0.025920,0.008075
8.387314,0.013377,0.024710,0.004934
8.427306,0.006467,0.005749,0.003600
8.457300,0.026136,0.011151,0.003443
8.487293,0.028894,0.012524,0.013744
8.527285,0.025661,-0.007806,0.004061
8.557279,0.029351,0.006704,0.015859
8.587271,0.025365,0.017830,0.025505
8.617265,0.006246,0.001683,0.018205
8.647258,0.014561,0.022676,0.013257
8.687250,0.008889,0.016591,0.013060
8.717244,-0.000945,0.009450,0.008107
8.747237,0.030089,0.012668,0.017696
8.787229,0.007569,-0.018230,0.003344
8.817223,0.025933,-0.020409,0.017427
8.847217,-0.005070,0.025082,0.028921
8.887208,0.016808,0.034829,0.005576
8.917202,0.006971,-0.000549,0.004146
8.947196,0.014594,-0.007406,0.010979
8.987187,0.015318,0.006348,0.020354
9.017181,0.015090,0.003347,0.016305
9.047175,-0.005421,0.000914,0.008663
9.087166,-0.000404,0.021820,0.003564
9.117160,0.009050,0.025305,0.001891
9.147154,0.003629,-0.005859,0.006553
9.187145,0.031410,-0.019424,0.004688
9.217139,0.017917,-0.023302,0.015110
9.247133,0.019924,-0.018139,0.008406
9.287124,0.000275,-0.005996,0.006993
9.317118,-0.000011,0.009078,0.006606
9.347112,-0.004021,0.017720,0.007464
9.387104,-0.001535,0.017493,0.004748
9.417097,0.007449,0.005385,0.005084
9.447091,0.000331,-0.011519,0.004447
9.487083,0.023487,-0.010281,0.010875
9.517076,0.004775,-0.019359,0.003710
9.547070,-0.002507,-0.018943,0.006097
9.587062,0.008252,0.032591,0.025759
9.617055,0.008909,0.005742,0.018239
9.647049,0.011359,-0.024055,0.002050
9.687041,0.013460,-0.016275,0.007611
9.717034,0.009402,-0.015681,0.005973
9.747028,0.001525,-0.018944,-0.001308
9.787020,0.007584,-0.002680,0.003273
9.817014,0.002658,-0.001464,0.009503
9.847007,0.011335,-0.007977,0.008451
9.886999,0.012774,-0.028895,0.020341
9.916993,0.013695,-0.027213,0.012382
9.946986,0.018634,-0.015855,0.016394
9.986978,-0.016907,-0.010818,0.012207
10.016972,-0.009627,0.006865,0.000576
10.046965,-0.009034,0.032209,0.006922
10.086957,-0.006208,-0.002790,0.000779
10.116951,-0.003955,-0.026246,-0.008835
10.146944,0.005547,-0.019203,-0.000860
10.186936,-0.006836,-0.008717,-0.003595
10.216930,0.009693,-0.006791,-0.000181
10.246923,0.001501,-0.012417,0.001108
10.286915,0.005968,-0.003935,-0.001355
10.316909,0.004499,0.001845,0.015157
10.346902,0.013510,0.000897,0.007572
10.386894,0.019666,-0.021255,0.000039
10.416888,0.015901,-0.017229,-0.003814
10.446882,0.011800,-0.025934,0.010598
10.486873,0.014092,-0.032747,0.012274
10.516867,0.010093,-0.014396,0.021834
10.546861,-0.002201,0.008763,0.016773
10.586853,-0.002146,0.040979,0.006386
10.616847,0.006600,0.041456,0.007702
10.646841,0.009420,-0.000691,-0.008092
10.686832,0.001994,-0.041580,-0.015201
10.716826,0.018055,-0.029792,-0.003027
10.746820,0.008315,-0.021455,0.006040
10.786811,-0.004779,-0.008861,0.008568
10.816805,-0.008276,0.006527,0.012024
10.846799,-0.006573,0.015746,0.009931
10.886790,0.001198,0.010929,0.000575
10.916784,0.017378,0.002193,-0.002202
10.946778,0.007058,-0.010009,-0.002257
10.986769,0.009369,-0.021627,0.003719
11.016763,0.001014,-0.011710,0.007754
11.046757,0.016252,0.005363,0.015083
11.086748,0.002155,-0.005486,0.022794
11.116742,0.019559,-0.003023,0.020492
11.146736,0.025093,-0.009721,0.014642
11.186727,0.018180,-0.009753,0.003611
11.216721,0.016809,-0.001895,0.015232
11.246715,0.003262,0.005236,0.005581
11.286706,0.013075,0.001233,0.006179
11.316700,0.013484,-0.000366,0.011777
11.346694,0.000176,-0.005331,0.005116
11.386685,-0.000800,0.004503,0.016807
11.416679,-0.004149,0.006805,0.006030
11.446673,-0.000892,0.005607,-0.006893
11.486664,0.012182,-0.000646,-0.005813
11.516658,0.010868,-0.003063,-0.001307
11.546652,0.002861,-0.011045,0.001141
11.586642,0.004939,-0.013308,0.008371
11.616636,-0.011574,0.005448,0.011600
11.646630,0.003529,0.013339,0.013642
11.686621,0.007829,-0.002117,0.005161
11.716615,0.008373,-0.016106,0.003041
11.746609,0.010913,-0.014662,0.009449
11.786600,0.012147,0.000702,0.014244
11.816594,0.007413,-0.012440,0.008786
11.846588,0.005573,-0.018526,0.012904
11.886579,0.015968,0.004169,0.017787
11.916573,0.011688,-0.006399,0.012742
11.946567,0.023117,-0.003298,-0.000032
11.986558,0.015719,0.008571,0.015717
12.029051,0.018442,0.002661,0.014183
12.059045,0.012035,0.008459,0.016509
12.089038,0.014715,0.003349,0.014162
12.129030,0.003456,0.001506,0.012529
12.159024,0.013853,0.019246,0.016773
12.189017,0.006102,0.022038,0.024295
12.229009,0.008547,-0.009071,0.010897
12.259003,0.020773,0.000667,0.018139
12.288996,0.027264,-0.009296,0.027177
12.328988,0.031355,0.011524,0.029191
12.358982,0.029093,0.024160,0.035834
12.388975,0.014967,0.010348,0.021292
12.428967,0.017571,-0.000801,0.014077
12.458961,0.029955,-0.005113,0.015863
12.488954,0.035527,-0.014405,0.019726
12.528946,0.023834,-0.023503,0.019008
12.558940,0.032792,-0.006108,0.018677
12.588934,0.056270,-0.010078,0.027643
12.618927,0.039080,-0.052964,0.001705
12.658919,0.038822,-0.057219,-0.006004
12.688913,0.030891,-0.018313,-0.014414
12.718906,0.026690,-0.019853,-0.015348
12.758898,-0.001176,-0.008608,-0.003451
12.788892,-0.000456,0.020591,0.026587
12.818885,0.012725,0.015258,0.020681
12.858877,0.013136,-0.044181,0.001418
12.888871,0.007662,-0.027397,0.008472
12.918864,0.020691,-0.008224,0.012584
12.958856,0.014989,-0.025412,0.010027
12.988850,0.021838,-0.043796,0.005230
13.018843,0.029440,-0.040533,-0.004119
13.058835,0.030152,-0.026062,0.017530
13.088828,0.026496,-0.027160,0.021559
13.118822,0.008588,-0.037738,0.029729
13.158814,0.025370,-0.031181,0.039152
13.188807,0.037256,-0.054728,0.044744
13.218801,0.022382,-0.083070,0.025676
13.258793,0.023441,-0.065333,0.011867
13.288786,0.021495,-0.049280,-0.002129
13.318780,0.000419,-0.013802,0.002129
13.358772,-0.000958,0.020287,0.003818
13.388765,-0.002259,0.018866,0.012420
13.418759,0.012286,0.006841,0.019306
13.458751,0.017711,-0.019584,0.024773
13.488744,0.027809,-0.036971,0.018248
13.518738,0.040236,-0.059377,0.017203
13.558730,0.013836,-0.049916,0.016348
13.588722,0.018308,-0.001939,0.022971
13.618716,0.018597,0.011722,0.016177
13.658708,0.011245,-0.017234,0.009041
13.688701,0.022291,-0.014278,0.003452
13.718695,0.025778,-0.027464,0.003080
13.758687,0.024954,-0.031062,0.008399
13.788680,0.029121,-0.039416,-0.003462
13.818674,0.010973,-0.036598,0.003404
13.858666,0.015198,-0.009319,0.009784
13.888659,0.010988,0.002447,0.024527
13.918653,0.000842,-0.013591,0.023570
13.958644,-0.009334,-0.012556,0.012486
13.988638,-0.011681,-0.010234,0.015385
14.018632,0.011151,-0.022604,0.009781
14.058623,0.008690,-0.013315,0.005215
14.088617,0.013137,-0.017764,0.006795
14.118611,0.007640,-0.010249,0.010479
14.158602,0.009406,-0.002323,0.023215
14.188596,0.008787,0.000390,0.017741
14.218590,0.005954,-0.006220,0.002895
14.258581,0.010390,-0.014313,-0.006563
14.288575,0.033294,-0.020214,-0.006698
14.318569,0.029306,-0.039805,-0.011304
14.358560,0.005083,-0.034621,-0.003936
14.388554,0.005282,0.002311,0.000857
14.418548,-0.007436,0.012827,0.005497
14.458539,-0.001819,0.016252,0.006674
14.488533,0.008462,-0.000344,0.010722
14.518527,-0.001911,-0.001251,-0.000590
14.558518,-0.001551,-0.018818,0.009608
14.588513,0.014298,-0.004585,0.005836
14.618507,0.000702,0.006197,0.005610
14.658498,0.010418,0.000213,0.001356
14.688492,-0.002262,-0.012136,0.008221
14.718485,0.008599,0.001071,0.014365
14.758477,0.006669,-0.013406,0.018621
14.788471,0.008126,-0.004350,0.008229
14.818464,0.008962,0.000079,0.007340
14.858456,0.000878,0.002039,-0.008223
14.888450,0.020280,0.006598,-0.009161
14.918443,0.005834,0.014409,-0.003357
14.958435,-0.001372,-0.038136,0.020820
14.988429,0.007294,-0.011479,0.017223
15.018422,0.005929,0.019771,0.015717
15.058414,0.005213,-0.002429,0.005797
15.088407,0.003913,-0.006052,-0.017653
15.118401,0.014508,0.006595,0.000325
15.158393,0.010708,0.017978,-0.005174
15.188386,0.004512,0.012194,0.015663
15.218380,-0.003412,0.004161,0.010817
15.258372,-0.001049,-0.002139,0.006402
15.288365,0.006141,0.005342,0.003144
15.318359,0.008307,0.005211,0.011774
15.358351,-0.004805,-0.005000,0.005438
15.388344,-0.005176,0.007502,0.010533
15.418338,0.013285,0.004449,0.003879
15.458329,0.000055,-0.003874,-0.002214
15.488323,0.009326,0.000837,0.004176
15.518317,0.005747,-0.006844,0.003454
15.558308,0.000641,-0.003206,0.016727
15.588302,0.011175,-0.000186,0.026816
15.618296,0.006887,-0.004586,0.010490
15.658287,0.011890,0.003618,0.009727
15.688281,0.012684,0.007437,0.002068
15.718275,0.010286,0.000442,-0.002389
15.758266,0.014028,0.020667,0.015096
15.788260,0.034079,0.018405,0.023062
15.818254,-0.003965,-0.014038,0.015254
15.858245,0.010174,0.005275,0.004782
15.888239,0.000650,0.017944,0.017293
15.918232,0.011535,0.013564,-0.005191
15.958224,0.002022,-0.022005,-0.003377
15.988218,0.015444,-0.009261,-0.009570
16.020712,0.011203,-0.003186,0.014586
16.060703,0.003718,-0.003477,0.013135
16.090697,-0.004437,-0.006674,0.009916
16.120691,0.013969,0.022283,0.012902
16.160682,0.004097,0.015356,0.012561
16.190676,0.002725,-0.001170,0.004311
16.220669,-0.001980,0.008261,0.010206
16.260661,0.022799,0.021246,0.011425
16.290655,0.020008,-0.008258,0.003636
16.320648,0.022513,-0.019080,0.003196
16.360640,0.023814,0.018833,0.012355
16.390634,0.005863,0.009953,0.011338
16.420627,-0.000736,0.005665,0.003083
16.460619,0.000734,0.015968,0.002977
16.490612,0.017842,0.017295,0.001148
16.520606,0.013697,0.008989,-0.002188
16.550599,0.023686,0.001147,-0.006344
16.590591,0.009354,-0.009900,0.004433
16.620584,0.007804,0.003414,0.008411
16.650578,0.009889,0.017307,0.003577
16.690570,0.010354,0.001685,0.005771
16.720563,0.020234,-0.000252,-0.003535
16.750557,0.026140,-0.011111,-0.022842
16.790548,0.026971,-0.004820,-0.019899
16.820542,0.018214,0.014999,-0.005229
16.850536,0.001299,0.017966,0.007984
16.890527,0.004735,0.001350,0.005187
16.920521,-0.004174,0.009830,0.001770
16.950515,-0.004233,0.032172,0.002359
16.990506,0.000992,0.023697,0.004958
17.020500,-0.001236,-0.003937,0.005861
17.050494,0.030029,-0.001786,0.007552
17.090485,0.015808,-0.011187,0.008306
17.120479,0.009498,0.000543,0.016649
17.150472,0.008327,0.018641,0.035948
17.190464,0.005722,0.024434,0.022685
17.220458,0.008228,0.000579,0.016890
17.250451,0.013207,-0.027182,0.004562
17.290443,0.018827,-0.029782,-0.001162
17.320437,0.011410,-0.024485,-0.003358
17.350430,0.003403,-0.010615,0.012672
17.390422,0.017730,0.009892,0.048292
17.420415,0.010116,0.003491,0.034930
17.450409,0.006931,-0.009612,0.023953
17.490401,0.010094,0.002130,0.012430
17.520394,0.018603,-0.002042,-0.000895
17.550388,0.013485,-0.024228,-0.004147
17.590379,0.011347,-0.019964,0.003099
17.620372,0.000508,-0.007844,0.020120
17.650366,0.001886,0.002194,0.020983
17.690357,-0.004877,0.005039,0.013880
17.720351,-0.008184,-0.001942,0.003421
17.750345,-0.001996,-0.003561,0.002292
17.790336,0.003460,0.007946,-0.000495
17.820330,0.002967,-0.007556,-0.000761
17.850324,-0.003382,-0.020117,-0.001127
17.890315,-0.007175,-0.001857,0.006294
17.920309,0.005102,0.013435,0.017573
17.950303,-0.003943,-0.000595,0.013339
17.990294,0.007670,-0.017414,0.013076
18.020288,0.015048,-0.011124,0.016216
18.050281,0.023851,-0.004513,0.014491
18.090273,0.001659,-0.018226,0.010395
18.120267,0.007708,0.002319,0.009611
18.150260,0.004271,0.008486,0.016224
18.190252,0.010112,0.002039,0.019986
18.220245,0.014880,-0.007267,0.015099
18.250239,0.019912,-0.016626,0.013918
18.290231,0.004899,-0.010713,0.011145
18.320224,0.010180,0.001051,0.010366
18.350218,0.018702,0.005712,-0.000506
18.390209,0.018378,0.000698,0.004895
18.420203,0.007074,0.008176,0.000241
18.450197,0.001321,0.016627,0.000466
18.490188,0.006388,0.009689,0.002717
18.520182,0.005726,-0.003268,-0.003710
18.550176,-0.005526,-0.014619,-0.002042
18.590167,0.006346,-0.004532,0.009948
18.620161,0.012106,-0.005725,0.004658
18.650154,0.026347,-0.002769,0.007771
18.690146,0.006794,0.007044,-0.000732
18.720140,0.003498,0.012776,0.000432
18.750133,0.008099,0.013537,0.000890
18.790125,0.004369,-0.011738,0.006639
18.820119,-0.014465,-0.043542,0.004513
18.850112,0.026699,-0.034089,0.010963
18.890104,0.012918,-0.023678,0.006776
18.920097,-0.001321,-0.015704,0.000503
18.950091,0.010389,0.005160,0.006813
18.990083,0.001678,0.006787,0.003126
19.020076,0.022838,-0.008033,0.002871
19.050070,-0.001047,-0.020964,0.012139
19.090061,0.027171,-0.010931,0.006779
19.120055,0.003106,-0.028109,0.006649
19.150049,0.012004,-0.001356,-0.002932
19.190040,-0.001986,0.008056,0.009007
19.220034,0.012225,0.010518,0.003933
19.250028,0.000849,0.003805,0.003183
19.290019,0.010093,-0.015844,-0.005287
19.320013,0.002845,-0.003004,0.001830
19.350006,0.011461,0.012524,0.013697
19.389998,0.008933,-0.011460,0.010506
19.419992,0.005009,-0.002987,-0.000486
19.449985,0.008217,0.004148,0.007517
19.489977,0.004176,0.008426,0.007917
19.519970,-0.002526,0.000821,0.008208
19.549964,-0.000366,0.007494,0.009554
19.589960,-0.001297,0.011214,0.013252
19.619953,0.010531,-0.001720,0.009191
19.649947,0.009747,-0.009693,0.007826
19.689938,0.004153,-0.003972,0.008672
19.719932,0.017470,-0.004132,0.015366
19.749926,0.001887,-0.009926,0.014469
19.789917,0.007183,-0.002011,0.009251
19.819911,0.009542,0.000281,0.015600
19.849904,0.009031,0.017399,0.008200
19.889896,0.013642,-0.008492,0.010717
19.919890,0.016724,-0.006384,-0.000712
19.949883,0.012400,0.007104,0.010091
19.989875,0.010649,0.002408,0.007218
20.022369,0.015462,-0.005222,0.011229
20.062360,0.008311,-0.010808,0.007218
20.092354,0.006595,-0.008971,0.004735
20.122348,0.010293,0.006902,0.006351
20.162339,0.013781,-0.000135,0.002334
20.192333,0.010392,-0.011386,-0.005312
20.222326,0.017721,-0.001660,0.011275
20.262318,0.009784,0.006879,0.009234
20.292312,0.002775,0.028220,0.008502
20.322305,0.012790,0.038968,0.011463
20.362297,0.008248,0.009573,0.006335
20.392290,0.010200,-0.009117,0.010503
20.422284,0.019984,-0.006812,0.016669
20.462276,0.013576,0.001617,0.021017
20.492269,0.023347,0.007625,0.028089
20.522263,0.011963,0.011219,0.021887
20.552255,0.012026,0.017043,0.005639
20.582249,0.016113,0.001012,0.013750
20.622240,0.030567,0.007025,-0.006616
20.652234,0.036249,-0.025718,-0.006937
20.682227,0.030456,-0.042330,-0.018230
20.722219,0.021816,0.011090,0.005653
20.752213,0.012994,0.044221,-0.006309
20.782206,0.016974,0.034555,0.001218
20.822198,0.019387,0.033032,0.000621
20.852191,0.022302,0.014718,0.003218
20.882185,0.022508,0.001407,0.007857
20.922177,0.024852,-0.000096,0.013365
20.952170,0.003700,-0.013212,0.012932
20.982164,0.009870,-0.021727,0.009861
21.022155,-0.002537,-0.010637,0.005569
21.052149,0.008906,0.003979,0.015021
21.082143,-0.007438,0.024372,0.020297
21.122134,0.000154,0.037522,0.005639
21.152128,-0.004139,0.030000,-0.011708
21.182122,0.005312,0.032117,-0.020524
21.222113,0.017639,0.003657,-0.011210
21.252107,0.016338,-0.034967,0.017757
21.282100,-0.005626,-0.057536,0.030916
21.322092,-0.003286,-0.060739,0.039633
21.352085,0.013656,-0.002981,0.038596
21.382079,0.009620,0.038138,0.016096
21.422071,0.016803,0.051073,-0.002092
21.452064,0.021145,0.045876,0.015602
21.482058,0.023564,0.021869,0.006439
21.522049,0.018171,-0.023789,0.003595
21.552043,0.015080,-0.026626,0.011325
21.582033,0.018943,-0.021961,0.009741
21.622024,-0.002057,-0.021519,0.012280
21.652018,0.007270,-0.010880,0.021909
21.682012,0.011583,-0.003910,0.012853
21.722003,0.025252,-0.014974,-0.002659
21.751997,0.008384,-0.018892,-0.016383
21.781990,-0.004658,0.013352,-0.018451
21.821982,-0.004280,0.030095,-0.017593
21.851975,-0.007694,0.002835,-0.011686
21.881969,0.012292,-0.016993,0.000166
21.921961,0.003770,-0.021565,0.011530
21.951954,0.011422,-0.027240,0.008644
21.981948,0.008145,-0.034386,0.007931
22.021939,0.009298,-0.017684,0.001973
22.051933,-0.000577,0.009443,0.012042
22.081927,-0.004845,0.017699,0.016910
22.121918,-0.010251,0.005782,0.005537
22.151912,0.003843,0.017829,0.017917
22.181905,0.007601,0.020324,0.032018
22.221897,-0.014125,-0.001505,0.014569
22.251891,0.006399,-0.002804,0.022979
22.281884,0.018315,-0.004828,0.024115
22.321876,-0.013242,-0.025800,0.009665
22.351869,-0.001186,-0.006189,0.001299
22.381863,0.001649,0.004435,0.004910
22.421855,0.009426,0.002552,-0.012241
22.451848,0.024578,0.001163,-0.001749
22.481842,0.006221,-0.005301,-0.008305
22.521833,-0.004119,-0.003263,-0.012053
22.551827,-0.005259,0.017301,-0.002834
22.581822,-0.007636,0.027857,-0.000280
22.621813,-0.002667,0.013042,-0.002038
22.651807,0.002287,0.018460,0.007012
22.681800,0.020249,0.015028,0.012204
22.721792,0.019196,-0.000427,0.020158
22.751786,0.016353,-0.012251,0.044606
22.781779,0.000899,-0.005580,0.063720
22.821771,0.031879,-0.005322,0.067840
22.851764,0.024769,-0.016356,0.052412
22.881758,0.024125,-0.020493,0.029115
22.921750,0.006754,-0.046151,0.018679
22.951743,-0.002234,-0.008403,0.008582
22.981737,0.017249,0.035116,0.022681
23.021728,0.011422,0.009625,0.022404
23.051722,0.011824,-0.013522,0.021656
23.081716,0.026949,-0.025799,0.014851
23.121707,0.046095,-0.022711,-0.003027
23.151701,0.034527,-0.013893,-0.011373
23.181694,0.014185,-0.011574,-0.016614
23.221686,0.001602,0.010801,-0.000585
23.251680,0.000338,0.023952,0.003997
23.281673,-0.002723,0.018087,-0.000876
23.321665,-0.010425,-0.017095,-0.016710
23.351658,-0.005922,-0.024644,-0.000324
23.381652,0.012374,-0.001855,0.017629
23.421643,0.005197,0.003321,0.006736
23.451637,-0.005351,-0.014140,-0.008911
23.481631,0.015372,-0.011931,-0.013399
23.521622,0.002419,0.017740,0.003049
23.551616,0.024525,0.013919,0.018145
23.581609,0.013542,0.001875,0.034572
23.621600,0.010224,-0.004942,0.042801
23.651594,0.011262,-0.011450,0.036197
23.681587,0.015022,-0.003544,0.011326
23.721579,0.012048,0.017308,-0.006130
23.751573,-0.008792,0.020643,-0.018207
23.781566,0.002345,0.050620,-0.009103
23.821558,-0.003104,0.068090,0.008210
23.851551,0.014919,0.046730,0.006500
23.881545,0.008816,0.001661,-0.002295
23.921536,0.015689,-0.022165,-0.002348
23.951530,0.007543,-0.022638,-0.004873
23.981524,0.001114,0.000716,-0.007547
24.022767,0.007060,0.040110,0.009318
24.062758,-0.015624,0.045080,0.002782
24.092752,0.008758,0.048677,0.005796
24.122745,0.015712,0.013765,0.007550
24.162737,0.004962,-0.028819,-0.000951
24.192730,0.013679,-0.023578,0.001535
24.222724,0.003540,-0.014146,0.013766
24.262716,0.031513,0.003879,-0.015302
24.292709,0.013825,-0.004335,-0.015913
24.322703,0.007315,-0.002052,-0.017916
24.362694,0.021623,0.005440,0.011488
24.392688,0.001267,0.026870,0.009466
24.422682,-0.005120,0.024404,0.008503
24.462673,-0.014235,0.021531,0.000215
24.492667,0.005334,0.007891,0.005690
24.522660,0.010067,-0.016510,-0.001517
24.552653,0.016158,-0.017184,-0.002685
24.582646,0.007065,-0.006278,-0.007358
24.612640,0.013448,0.003141,0.001809
24.652631,0.012891,0.024979,-0.004003
24.682625,0.021455,0.005935,0.001593
24.712619,0.013950,-0.026421,-0.021962
24.752610,0.018794,-0.036624,-0.034502
24.782604,0.024473,-0.048946,-0.030364
24.812597,-0.005856,-0.057728,-0.027487
24.852589,-0.004479,-0.027919,-0.003718
24.882582,-0.019653,-0.024653,0.000282
24.912576,0.001640,-0.013681,-0.011503
24.952568,-0.015494,0.006963,-0.006431
24.982561,-0.006461,0.024293,-0.016703
25.012555,0.004300,0.005860,-0.006764
25.052546,0.010672,-0.042961,-0.009329
25.082540,0.014993,-0.051850,0.003311
25.112534,0.014007,-0.036547,-0.000023
25.152525,0.001500,-0.011229,0.013592
25.182519,-0.002315,0.005871,0.020430
25.212512,-0.002677,0.002439,0.019938
25.252504,-0.000121,-0.013704,0.021692
25.282498,-0.021011,-0.032327,0.012884
25.322489,0.012870,-0.032036,-0.001188
25.352483,0.010686,0.013353,0.011961
25.382476,0.005858,0.023036,0.013986
25.412470,0.002566,0.010623,0.012152
25.452462,0.008544,0.002929,0.016827
25.482455,0.004977,-0.004813,0.012468
25.522447,0.002227,-0.018691,0.005777
25.552440,-0.018782,-0.004841,0.008946
25.582434,-0.007229,0.014128,0.019479
25.612428,-0.017354,0.008254,0.012074
25.652419,-0.004471,-0.000544,0.006687
25.682413,-0.016349,-0.001474,-0.000693
25.712406,0.011073,-0.034918,-0.007393
25.752398,0.019646,-0.034106,-0.000978
25.782392,0.028256,-0.019294,0.011037
25.812385,0.019102,-0.019470,0.021976
25.852377,0.011911,-0.005777,0.021396
25.882370,0.006354,0.000558,0.014557
25.912364,0.011946,0.007910,0.002448
25.952355,0.011205,0.001058,-0.006243
25.982349,0.014954,-0.003728,0.001114
26.022341,0.013099,-0.009214,0.004961
26.052334,0.008942,-0.008835,0.001676
26.082328,0.005073,-0.017856,0.004206
26.112321,-0.005806,-0.019434,-0.005938
26.152313,0.003641,0.012922,0.006270
26.182307,0.012982,0.008953,0.004937
26.222298,0.000513,-0.016080,-0.003143
26.252292,0.008661,-0.009169,-0.002249
26.282285,0.017067,-0.014160,-0.002148
26.312279,0.006485,-0.023499,0.001958
26.352271,0.019093,-0.002783,0.000990
26.382264,0.015585,-0.002618,0.016585
26.412258,-0.006987,0.000726,0.015781
26.452249,0.015435,-0.003941,0.011176
26.482243,0.010286,-0.019262,-0.004897
26.512237,0.012863,-0.020355,-0.010629
26.552228,0.013493,-0.012031,0.002144
26.582222,-0.000199,-0.009049,0.005427
26.622213,0.027591,0.013863,0.020907
26.652207,-0.002008,-0.005141,0.016100
26.682201,0.008203,-0.002730,0.006981
26.712194,0.022698,0.009081,0.026124
26.752186,0.010532,-0.013113,0.008823
26.782179,0.008048,-0.005807,0.012799
26.822171,0.011714,0.021848,0.017338
26.852165,0.009796,0.008362,0.021882
26.882158,-0.002328,0.006000,0.008941
26.922150,0.000131,-0.007226,0.004193
26.952143,0.009351,0.000781,0.019645
26.982137,-0.001499,0.015993,0.014636
27.012131,0.012702,0.017971,0.011347
27.052122,0.014828,0.014940,0.027423
27.082116,0.009665,0.023228,0.011603
27.122107,0.012080,0.016287,0.019831
27.152101,0.007319,0.012628,0.019666
27.182095,0.017546,-0.000151,0.010115
27.222086,0.019807,0.000781,0.015988
27.252080,0.022557,0.002518,0.018283
27.282073,-0.005038,0.000633,0.010832
27.322065,0.012160,0.043035,0.008360
27.352058,0.008226,0.037737,0.002459
27.382052,0.000434,0.011385,-0.009859
27.422044,0.007264,-0.002011,-0.003707
27.452037,-0.003095,0.018458,0.004395
27.482031,0.007911,0.022297,-0.000814
27.522022,0.005674,0.005526,0.009033
27.552016,0.001408,0.021333,0.006179
27.582011,0.015390,0.035231,0.004524
27.622002,-0.001018,0.000522,-0.005473
27.651996,-0.000221,-0.001602,-0.013035
27.681989,0.019859,0.011596,-0.007669
27.721981,0.003193,0.010685,-0.007776
27.751975,0.017786,0.009745,-0.002631
27.781968,0.020595,0.004000,0.004445
27.821960,0.023394,-0.009733,0.008778
27.851953,0.005198,-0.006547,0.015409
27.881947,0.017657,0.000955,0.013082
27.921939,0.014862,0.011940,0.008351
27.951932,0.018564,0.026405,0.011987
27.981926,0.017264,0.017854,0.016351
28.024418,0.021230,-0.030447,0.007901
28.054412,0.021811,-0.042078,0.006167
28.094404,0.013227,-0.026429,0.004992
28.124397,0.015668,-0.026147,0.009535
28.154391,0.010050,-0.030200,0.010018
28.194382,0.012632,-0.029538,-0.002281
28.224376,0.009366,-0.006717,0.001294
28.254370,0.012478,0.014381,0.001835
28.294361,0.009089,-0.002525,0.000854
28.324355,-0.005685,-0.022834,-0.000462
28.354348,-0.007067,-0.020992,0.007624
28.394340,0.006431,-0.002065,0.015889
28.424333,-0.002091,-0.004599,0.016239
28.454327,-0.007470,-0.014365,0.012180
28.494319,0.002711,-0.001832,0.009379
28.524312,0.002760,0.000346,0.005877
28.554306,-0.005058,0.000830,0.011227
28.584298,0.005089,0.003219,0.007053
28.614291,0.015501,-0.005986,0.012821
28.654283,0.003649,-0.012007,0.004519
28.684276,0.002490,-0.011177,0.010413
28.714270,0.007228,0.003581,0.015761
28.744264,-0.009757,0.011573,0.016466
28.784255,0.012126,0.003733,0.017195
28.814249,0.000271,-0.000961,0.017814
28.854240,0.012041,-0.003624,0.022561
28.884234,0.007007,-0.005757,0.024631
28.914228,-0.003079,-0.000475,0.014858
28.944221,0.010125,0.001439,0.014891
28.984213,0.005719,-0.000653,0.019324
29.014206,-0.007646,0.013517,0.016011
29.054198,-0.017947,-0.005921,0.011730
29.084191,0.016940,-0.027982,0.010488
29.114185,0.005555,-0.010464,0.010239
29.154177,0.015547,0.006511,0.007229
29.184170,-0.004279,0.001530,-0.006454
29.214164,-0.000612,-0.005235,-0.007603
29.254155,0.018398,-0.002593,0.007559
29.284149,0.026898,-0.004915,0.004927
29.314143,0.010423,-0.034879,0.003827
29.354134,0.028033,-0.041227,-0.007278
29.384128,0.033691,-0.051180,0.010112
29.414121,0.007701,-0.039820,-0.000723
29.444115,-0.001560,-0.014158,0.006930
29.484107,0.009233,0.032549,0.006133
29.514100,0.003929,0.026454,0.004137
29.554092,0.000646,0.003084,-0.009629
29.584085,0.001707,0.007623,-0.002632
29.614079,0.015639,0.017582,-0.003917
29.654070,0.025103,-0.018399,-0.008104
29.684064,0.015011,-0.039679,-0.006176
29.714058,0.024124,-0.033759,0.003512
29.754049,0.030120,-0.044703,0.016371
29.784043,0.001304,-0.020789,-0.005067
29.814036,0.003134,0.017354,0.001634
29.854028,-0.004255,0.051899,-0.006303
29.884022,-0.005323,0.037103,-0.008086
29.914015,0.008758,0.017328,-0.014572
29.954007,0.010688,-0.008734,0.012709
29.984000,0.025278,-0.019125,0.011882
30.013994,0.020963,-0.034066,0.015967
30.053985,0.016162,-0.010118,0.006964
30.083979,0.009346,0.016823,0.015848
30.113973,0.005976,0.045579,0.020733
30.153964,0.006785,0.045402,0.015494
30.183958,0.018543,0.035293,0.014036
30.213951,0.013388,0.019743,0.018103
30.253943,0.000590,0.006417,0.004325
30.283937,0.015098,0.008123,-0.002622
30.313930,0.012342,0.006116,0.003562
30.353922,0.018334,0.020039,0.015455
30.383915,0.005434,0.018136,0.013096
30.413909,0.000822,0.014434,0.009156
30.453901,0.011226,0.024089,0.011435
30.483894,0.002218,0.013469,0.001423
30.513888,0.006273,0.005192,-0.012010
30.553879,0.019532,0.024541,-0.016661
30.583873,0.001720,0.026098,-0.029052
30.613867,0.001996,0.014671,-0.018006
30.653858,0.005069,0.073002,-0.006705
30.683852,0.012396,0.068679,0.005974
30.713845,-0.026712,0.036155,-0.019467
30.753837,0.002642,0.048022,-0.016356
30.783830,0.018068,0.036560,-0.002111
30.813824,0.014412,-0.026316,-0.009725
30.853816,0.007160,-0.068941,0.002643
30.883809,0.011484,-0.030306,0.012781
30.913803,0.017558,-0.002651,0.018559
30.953794,0.011016,-0.008703,0.003411
30.983788,0.009984,0.007870,0.000539
31.013782,0.013054,0.022358,0.009658
31.053773,0.001309,0.021042,0.010943
31.083767,0.001262,-0.003112,0.008910
31.113760,0.002052,-0.014825,0.000902
31.153752,0.014232,-0.030620,0.000832
31.183745,0.006262,-0.042493,-0.001706
31.213739,0.014669,-0.044717,0.008764
31.253731,0.009671,-0.032948,0.018969
31.283724,0.015246,-0.028485,0.026767
31.313718,-0.015689,-0.006897,0.033202
31.353709,0.016107,0.006013,0.022543
31.383703,0.015079,-0.024060,0.007515
31.413697,0.013997,-0.042039,0.000948
31.453688,0.023653,-0.028211,0.014808
31.483682,0.010706,-0.025931,0.010746
31.513675,-0.003687,-0.011485,0.006225
31.553667,0.003422,0.008394,0.012800
31.583661,0.010589,-0.006054,0.009597
31.613654,0.008383,-0.016757,0.001845
31.653646,0.018921,-0.014263,-0.003051
31.683639,0.015283,-0.001116,0.000558
31.713633,0.007113,0.006284,-0.002154
31.753624,0.005042,0.008778,0.001594
31.783618,0.015342,0.000447,0.011853
31.813612,-0.000059,-0.005119,0.001644
31.853603,0.003882,0.003248,0.013123
31.883597,0.006339,0.011229,0.011507
31.913590,-0.005723,0.013504,0.000241
31.953582,0.007534,-0.005692,-0.004726
31.983576,-0.006334,-0.009195,0.002253
32.024819,0.003628,0.000046,0.009676
32.054812,0.003814,-0.014950,0.009436
32.094804,0.010320,-0.009843,0.008511
32.124797,0.006955,0.000961,0.015573
32.154791,0.003776,0.007477,0.006270
32.194783,0.010411,-0.005292,0.013797
32.224776,0.012703,-0.001810,0.007948
32.254770,0.005604,-0.005157,0.013539
32.294761,-0.004795,0.005177,0.016850
32.324755,0.015910,0.003647,0.016452
32.354749,0.004617,-0.012428,0.009699
32.394740,0.022297,-0.015229,0.016664
32.424734,0.003723,-0.003067,0.015409
32.454727,0.000241,0.011193,0.022018
32.494719,-0.000334,0.020641,0.012242
32.524712,-0.003547,0.008499,0.011790
32.554705,0.002431,-0.002790,0.009441
32.584699,0.015668,-0.001520,0.012510
32.624690,-0.005015,-0.007476,0.002878
32.654684,0.001107,-0.007431,0.005298
32.684678,-0.005566,0.003298,0.017927
32.724669,0.009057,0.001637,0.015425
32.754663,-0.001233,-0.031678,0.011647
32.784656,0.002394,-0.024954,0.007159
32.824648,0.007711,0.005670,0.028192
32.854641,-0.002698,-0.000215,0.020677
32.884635,0.007748,-0.004581,0.016909
32.924627,0.007980,0.000775,0.015695
32.954620,0.016538,0.002504,0.010117
32.984614,0.022005,-0.007049,0.007859
33.024605,0.017004,-0.010428,-0.003398
33.054599,0.018492,-0.002578,0.010657
33.084593,0.021498,-0.005549,0.014110
33.124584,-0.004936,0.005070,0.024590
33.154578,-0.004149,0.032319,0.038443
33.184571,0.002692,0.026954,0.045949
33.224563,0.015937,-0.022662,0.036020
33.254556,0.029888,-0.042704,0.042416
33.284550,0.028301,-0.043735,0.036919
33.324542,0.015110,-0.002796,0.018529
33.354535,0.012578,0.048866,0.003451
33.384529,0.002996,0.070321,0.013853
33.424520,-0.011133,0.025090,0.007155
33.454514,-0.030042,0.000412,0.001663
33.484507,-0.034241,0.010842,0.012788
33.524499,0.014635,-0.035738,0.058291
33.554493,0.026886,-0.101543,0.072519
33.584486,0.035616,-0.142616,0.078758
33.624477,-0.046192,-0.144952,0.026373
33.654470,0.034384,-0.038224,0.013443
33.684464,0.103748,0.072339,0.047097
33.724455,0.060436,0.044930,-0.007772
33.754449,0.034409,-0.023155,-0.019596
33.784443,0.057638,-0.012961,0.010972
33.824434,0.041894,0.047564,0.016098
33.854428,0.030861,0.041981,0.005210
33.884421,0.027982,0.009926,0.000437
33.924413,0.048971,0.006131,0.036184
33.954406,0.054149,-0.007284,0.064627
33.984400,0.024603,-0.016047,0.060561
34.024392,0.014935,0.056021,0.049630
34.054385,0.006816,0.097497,0.050719
34.084379,0.000404,0.083916,0.027668
34.124370,0.006846,0.061638,0.006123
34.154364,0.005687,0.053313,0.011313
34.184357,0.012978,0.033272,0.012079
34.224349,0.011953,0.013455,0.015774
34.254343,0.003779,0.026326,0.016784
34.284336,0.005608,0.043684,0.024675
34.324328,0.000443,0.051550,0.019840
34.354321,0.004412,0.044006,0.011574
34.384315,0.002717,0.030231,-0.004852
34.424306,0.027005,-0.017186,-0.035939
34.454300,0.020409,-0.020854,-0.030084
34.484294,0.006159,0.007309,-0.026745
34.524285,-0.005751,0.041470,0.007632
34.554279,-0.004232,0.057588,0.029296
34.584272,-0.003742,0.049209,0.031202
34.624269,-0.010654,0.021928,0.018551
34.654262,0.015060,0.009090,0.013931
34.684256,0.016309,-0.002577,0.006477
34.724248,0.007790,-0.005029,-0.003368
34.754241,0.009424,0.004618,-0.009310
34.784235,-0.008293,0.017419,0.008096
34.824226,0.011618,0.030860,0.005148
34.854220,0.005620,0.012265,0.003658
34.884213,0.006383,0.004641,-0.003084
34.924205,0.018498,0.001728,-0.009846
34.954199,0.007315,-0.000439,-0.015635
34.984192,0.001107,0.005696,-0.022168
35.024184,-0.011031,0.030516,-0.026070
35.054177,-0.010511,0.056684,-0.017698
35.084171,-0.015599,0.060039,-0.012861
35.124162,-0.016808,0.033146,-0.023979
35.154156,-0.002401,0.007644,-0.013205
35.184150,-0.005566,-0.000039,-0.018678
35.224141,-0.007025,0.006569,-0.021092
35.254135,-0.016034,0.026212,-0.017058
35.284128,-0.014480,0.046173,-0.014953
35.324120,-0.015767,0.044818,-0.011506
35.354113,-0.010996,0.030239,-0.017339
35.384107,-0.003031,0.015483,-0.010482
35.424099,0.010721,-0.005647,0.003695
35.454092,0.005999,-0.012246,-0.000814
35.484086,0.007279,0.003617,0.006867
35.524077,0.016492,0.024280,0.020110
35.554071,-0.002386,0.030468,0.008037
35.584065,0.019393,0.034242,-0.003784
35.624052,0.000089,0.037267,-0.013002
35.654046,0.009021,0.031052,-0.021842
35.684039,0.000103,0.030341,-0.021271
35.724031,0.006571,0.052132,-0.029177
35.754024,-0.004024,0.028809,-0.024324
35.784018,0.004872,0.004515,-0.015463
35.824009,0.000583,-0.002403,0.003341
35.854003,0.008891,-0.007723,0.004553
35.883997,-0.002151,-0.004545,-0.000848
35.923988,-0.004652,0.026742,-0.006118
35.953982,-0.008230,0.041150,-0.003068
35.983975,-0.012412,0.034266,-0.009928
36.027717,-0.006074,-0.006609,0.003093
36.057711,-0.009518,-0.025712,-0.004416
36.087704,0.005574,-0.017795,-0.003593
36.127696,0.006971,-0.021108,-0.004465
36.157689,0.006976,-0.016425,-0.018676
36.187683,0.004797,0.010827,-0.011366
36.227674,0.020387,0.023404,-0.003445
36.257668,0.007086,0.005373,0.008831
36.287662,0.013382,-0.017352,0.014448
36.327653,0.041563,-0.025027,0.020560
36.357647,0.023190,-0.036241,0.018512
36.387640,0.013606,-0.030126,0.010053
36.427632,0.011231,-0.009000,0.008616
36.457625,0.009863,0.002087,0.003443
36.487619,0.004692,0.003506,-0.012639
36.527611,-0.002952,0.009609,-0.013560
36.557603,-0.002378,0.028887,-0.007142
36.587597,0.003557,0.028795,-0.007579
36.617598,-0.006850,-0.000631,-0.003219
36.657589,-0.009310,-0.013433,-0.010861
36.687583,0.004688,-0.008455,-0.002080
36.717576,-0.009255,0.019298,0.005894
36.757568,-0.006781,0.042153,0.000754
36.787561,-0.000433,0.028517,0.003730
36.817555,-0.006420,0.018402,-0.003320
36.857547,0.011094,0.011380,-0.013478
36.887540,0.015233,-0.009380,-0.007212
36.917534,0.033144,-0.022997,-0.001631
36.957525,0.008182,-0.012879,0.008715
36.987519,0.010228,0.006191,0.023978
37.017513,0.008714,0.032837,0.011424
37.057504,0.007890,0.026488,-0.014275
37.087498,0.017559,0.004381,-0.018025
37.117491,-0.001058,-0.016472,-0.008846
37.157483,0.016474,-0.007651,0.002688
37.187476,0.014850,0.005747,0.011894
37.217470,-0.010443,0.019107,0.013023
37.257461,-0.013468,0.039232,-0.004171
37.287455,-0.009875,0.040202,-0.008429
37.317449,-0.000638,0.021349,-0.019727
37.357440,0.006348,-0.010516,-0.026965
37.387434,0.007139,-0.011990,-0.014435
37.417427,0.017181,0.002384,-0.007204
37.457419,0.004309,0.034867,-0.006805
37.487413,0.005523,0.028769,-0.008599
37.517406,0.026813,0.023842,-0.011517
37.557398,0.016832,0.000155,-0.016115
37.587391,0.011105,0.001744,-0.020723
37.617378,-0.002852,0.028119,-0.011786
37.657369,-0.019723,0.045249,0.002117
37.687363,-0.019965,0.028933,0.009639
37.717357,-0.033534,-0.006057,0.012225
37.757348,-0.007262,0.016776,0.019447
37.787342,0.019724,0.004950,0.009187
37.817335,0.003139,-0.035157,-0.009855
37.857327,-0.008493,-0.033548,-0.017843
37.887320,-0.002097,0.002057,-0.014065
37.917314,-0.005791,0.007012,-0.010705
37.957306,-0.009623,-0.025488,-0.003835
37.987299,-0.002824,-0.023423,0.001238
38.017293,0.007384,-0.020397,0.011553
38.057284,0.004339,-0.016847,0.008002
38.087278,0.011451,-0.011849,-0.002810
38.117271,0.015072,-0.013147,-0.008644
38.157263,0.011075,-0.019576,-0.012495
38.187257,0.006815,-0.025392,-0.005039
38.217250,-0.006624,-0.032145,0.011990
38.257242,-0.002700,-0.031017,0.029536
38.287235,-0.001325,-0.028309,0.035347
38.317229,-0.003218,-0.020770,0.020014
38.357220,-0.007568,-0.003986,0.001752
38.387214,0.000020,-0.001969,-0.007399
38.417208,-0.004730,-0.001005,-0.009823
38.457199,-0.002320,-0.009145,-0.006514
38.487193,0.000385,-0.004178,0.008933
38.517186,0.008264,-0.008823,0.006505
38.557178,0.015435,-0.018723,-0.003750
38.587171,0.006374,-0.015055,-0.007668
38.617168,0.007953,-0.006297,0.001310
38.657159,0.006939,0.009860,0.000144
38.687153,0.015379,0.001006,0.002572
38.717147,-0.012099,-0.012176,0.003019
38.757138,0.008815,0.004169,0.001237
38.787132,0.001086,-0.005547,0.014162
38.817125,0.002062,-0.019127,-0.001388
38.857117,0.007611,-0.018975,0.003685
38.887110,0.001899,-0.010310,0.004156
38.917104,-0.009279,-0.004102,-0.005766
38.957096,0.004723,-0.000548,0.008925
38.987089,-0.003654,-0.009833,0.001742
39.017083,0.000231,-0.014129,-0.007484
39.057074,0.009071,-0.016653,-0.002126
39.087068,0.002993,-0.016611,-0.004872
39.117062,0.022243,-0.014095,0.011359
39.157053,0.012996,-0.014574,0.008503
39.187047,-0.001592,-0.013147,0.015119
39.217040,0.012047,0.008658,0.021920
39.257032,0.016998,-0.003615,0.012337
39.287025,0.017633,-0.021549,-0.008359
39.317019,0.017843,-0.019275,-0.002261
39.357010,0.002913,-0.002214,0.005464
39.387004,-0.001395,0.017969,0.007837
39.416998,0.004519,0.021186,0.014297
39.456989,-0.008770,0.012120,0.004550
39.486983,0.003525,0.002746,0.006275
39.516976,0.008863,-0.004934,0.005049
39.556968,0.004626,-0.009261,-0.007141
39.586961,0.016112,0.003563,-0.006717
39.616952,0.016160,0.004781,-0.006054
39.656943,-0.012315,0.026526,0.000603
39.686937,-0.000813,0.046912,0.008697
39.716931,-0.001607,0.041493,0.017369
39.756922,-0.003331,-0.000688,0.006703
39.786916,-0.006104,-0.014054,-0.002779
39.816909,0.021550,-0.002745,0.003969
39.856901,0.014286,-0.001644,0.010432
39.886894,0.005195,0.001432,0.004738
39.916888,0.015333,0.011316,0.027646
39.956879,0.029187,-0.002054,0.022622
39.986873,0.015829,-0.026922,0.004330
40.028115,0.038659,-0.038576,-0.015255
40.058109,0.046035,-0.045288,-0.003744
40.088102,0.038074,-0.052675,0.009182
40.128094,0.010103,-0.014285,0.029353
40.158087,0.001113,0.014198,0.041120
40.188081,0.002978,0.023802,0.041555
40.228073,-0.015801,0.020042,0.015155
40.258066,0.011043,-0.000521,-0.002675
40.288060,0.015763,-0.016713,-0.000334
40.328051,0.024462,-0.020865,0.002002
40.358045,0.022628,-0.003853,0.009162
40.388038,0.009880,0.028828,0.022767
40.428030,0.003471,0.061360,0.019047
40.458023,0.000549,0.050250,0.001169
40.488017,0.002778,0.028222,-0.009899
40.528009,0.012974,0.004529,-0.007538
40.548003,0.010897,0.004294,-0.005627
40.587994,0.014609,0.014645,0.000631
40.617987,-0.003389,0.016527,0.005489
40.647980,-0.013323,0.049296,0.005432
40.687972,0.018633,0.040799,-0.009231
40.717965,-0.007558,0.019973,-0.014816
40.747959,-0.001685,0.014165,-0.007832
40.787950,0.002895,0.014162,0.018728
40.817944,0.001529,0.014005,0.016705
40.847938,0.003182,0.012447,0.012199
40.887929,-0.003125,0.022405,-0.001246
40.917923,0.005358,0.031479,-0.001438
40.947916,0.020142,0.027850,0.001374
40.987908,0.024643,-0.009616,0.004020
41.017901,0.019947,-0.022413,0.009231
41.047895,0.013276,-0.013787,0.005870
41.087887,0.007560,0.000283,0.011303
41.117880,0.007224,0.022180,0.006722
41.147874,-0.001355,0.024345,0.004711
41.187865,0.012611,-0.006573,-0.000481
41.217859,-0.000555,-0.014390,0.001025
41.247852,0.018333,-0.005686,-0.005242
41.287844,0.016161,-0.016295,-0.002248
41.317837,0.002169,-0.034702,-0.007334
41.347831,-0.007385,-0.026168,0.011810
41.387823,0.010617,0.006947,0.014911
41.417816,0.010141,-0.002180,0.012379
41.447810,0.004006,-0.014109,-0.003088
41.487801,0.003043,-0.015614,-0.008802
41.517795,0.018604,-0.003011,-0.007440
41.547788,0.015895,-0.001619,-0.002926
41.587780,0.000091,-0.009369,0.002394
41.617774,0.018577,-0.013573,0.012183
41.647767,0.007036,-0.010424,0.014577
41.687759,0.016696,-0.010213,0.003824
41.717752,0.005678,-0.012753,0.007936
41.747746,0.006104,-0.000268,0.001080
41.787737,0.003342,0.005172,0.008525
41.817731,0.005843,0.002683,0.004767
41.847724,0.006879,-0.002917,0.011429
41.887716,0.008885,0.004020,0.014020
41.917709,0.005660,-0.009657,0.016958
41.947703,-0.002629,-0.015211,0.013171
41.987695,0.013240,-0.009427,0.009986
42.017688,0.030187,-0.022236,0.012366
42.047682,0.044557,-0.056713,0.017744
42.087673,0.017541,-0.055067,0.015697
42.117667,0.014596,-0.021760,0.016232
42.147660,-0.004774,0.018258,0.007483
42.187652,-0.025391,0.072214,0.000619
42.217645,-0.001104,0.064309,0.003596
42.247639,0.004731,0.015662,0.006219
42.287630,0.015382,-0.037040,0.005621
42.317624,0.013514,-0.037977,0.014931
42.347618,0.010254,-0.018143,0.011763
42.387609,0.003753,0.003551,0.005669
42.417603,0.006767,0.001186,-0.001076
42.447596,0.004773,-0.010917,-0.003013
42.487588,0.016824,-0.021533,0.011340
42.517581,0.002237,-0.015572,0.010897
42.547575,0.003462,0.001269,0.015424
42.587566,0.009551,0.015703,0.012437
42.617560,0.001265,0.018543,-0.004065
42.647554,0.000632,0.014371,-0.005154
42.687545,0.008996,0.008262,0.002635
42.717539,0.005170,-0.003767,0.003903
42.747532,0.007682,-0.012811,0.004454
42.787524,0.000135,-0.013198,0.015428
42.817517,0.021653,-0.014565,0.010876
42.847511,0.014083,-0.026204,0.008900
42.887502,0.016113,-0.006963,-0.007597
42.917496,0.018625,0.006357,0.004945
42.947490,0.016354,-0.000137,0.009919
42.987481,0.003991,0.007368,0.002697
43.017475,0.011611,0.022838,0.002756
43.047468,-0.008679,0.029856,0.002934
43.087460,0.013138,0.002165,0.014106
43.117453,0.005214,-0.018181,0.003105
43.147447,0.014436,-0.028049,0.002929
43.187438,0.017238,-0.016359,0.014633
43.217432,0.004940,0.001247,0.002089
43.247426,-0.003522,0.013591,0.010080
43.287417,0.018019,0.020547,0.005049
43.317411,0.018178,0.001382,0.008933
43.347404,0.013530,-0.006172,0.005257
43.387396,0.012101,-0.004083,0.003898
43.417389,0.015287,0.003428,0.013927
43.447383,0.028215,0.002482,0.015576
43.487374,0.011823,0.009137,0.003148
43.517368,0.004998,0.006008,0.004379
43.547361,0.011692,0.011641,-0.000288
43.587353,0.020565,0.001546,0.005001
43.617351,0.014452,0.000461,0.011247
43.647345,0.011762,0.008151,0.027322
43.687337,0.001582,0.024754,0.024909
43.717330,-0.000746,0.037096,0.017272
43.747324,0.003184,0.042511,0.009260
43.787315,0.008130,0.029512,0.001708
43.817309,0.010883,0.011969,0.007913
43.847302,0.026157,0.001462,0.014277
43.887294,0.013636,-0.015546,0.023950
43.917288,0.009138,-0.008358,0.018991
43.947281,0.012374,0.018916,0.019814
43.987273,-0.003656,0.040097,0.018619
44.027266,0.001380,0.039397,0.010374
44.057260,0.006141,0.027592,0.003055
44.087253,0.008824,0.013916,-0.002394
44.127245,0.014900,-0.009297,0.006687
44.157239,0.006625,-0.004038,0.009906
44.187232,0.003580,0.011379,0.004145
44.227224,0.003482,0.005748,0.018492
44.257218,-0.011422,0.017211,0.007946
44.287211,-0.000887,0.036541,-0.002773
44.327203,0.009631,0.025968,0.000922
44.357197,0.006679,0.008618,0.005159
44.387191,-0.001157,0.014443,-0.004706
44.427182,0.016835,0.005914,0.010124
44.457176,-0.001806,0.005350,0.002864
44.487170,0.009749,0.011585,0.004013
44.527162,0.012420,0.003235,0.019027
44.557155,0.006019,0.012085,0.003104
44.587148,0.021206,0.009940,0.001819
44.617137,0.011317,0.006925,0.000915
44.657129,0.014879,-0.004786,0.006558
44.687123,0.000849,-0.013418,0.001618
44.717117,0.010533,-0.000835,-0.000741
44.757109,0.022952,-0.029639,-0.002149
44.787103,0.025623,-0.061690,-0.007682
44.817097,0.027710,-0.067343,0.002997
44.857088,0.009120,-0.033064,0.012223
44.887082,0.000466,0.009843,0.010877
44.917076,0.000173,0.022820,0.008263
44.957068,-0.010314,0.015901,-0.000924
44.987062,0.005331,0.017566,-0.012525
45.017056,0.026411,-0.007011,-0.002769
45.057048,0.029819,-0.068108,-0.002764
45.087042,0.012916,-0.061766,0.006307
45.117035,0.012290,-0.020610,0.018121
45.157027,-0.015113,0.004072,0.106998
45.187021,-0.011417,0.016698,-0.000848
45.217015,-0.018275,0.023605,-0.006629
45.257007,-0.002108,0.025510,-0.003311
45.287001,0.012939,0.006869,-0.052679
45.316995,-0.006249,-0.004103,0.038910
45.356987,0.007380,0.006950,0.044648
45.386981,0.001402,0.018689,-0.033296
45.416974,-0.003402,0.008688,0.063132
45.456966,-0.006420,0.009984,0.064918
45.486960,0.006004,0.015834,-0.022124
45.516954,0.009841,0.001401,0.058850
45.556946,-0.005632,0.001123,0.050927
45.586940,0.008495,0.017767,-0.040027
45.616938,0.006195,0.012955,0.025444
45.656930,0.018643,0.001634,0.010307
45.686924,0.012912,-0.011526,0.005999
45.716918,0.013255,-0.011068,0.000742
45.756910,0.013279,-0.010714,-0.006241
45.786904,0.016149,-0.015084,-0.008360
45.816897,-0.006289,-0.039155,-0.003254
45.856889,0.001330,-0.036381,-0.002494
45.886883,0.012942,-0.027620,0.010971
45.916877,0.015438,-0.055466,0.014072
45.956869,0.009913,-0.075592,-0.002094
45.986863,0.016415,-0.068824,0.004894
46.016857,0.020983,-0.077664,-0.007387
46.056849,-0.002305,-0.078053,-0.026763
46.086843,0.019852,-0.065610,-0.016896
46.116837,0.019936,-0.056523,0.000819
46.156829,0.008548,-0.027375,0.001745
46.186823,0.022067,-0.013196,-0.006883
46.216817,0.027259,-0.018647,0.000891
46.256808,0.027559,0.002082,-0.031586
46.286802,0.066645,0.038876,-0.045919
46.316796,0.061836,0.060138,-0.042627
46.356788,0.059966,0.011883,-0.068759
46.386782,0.056598,-0.034287,-0.082452
46.416776,0.037275,-0.029195,-0.094611
46.456768,0.042682,-0.018304,-0.055113
46.486762,0.072688,0.009774,-0.077865
46.516756,0.088942,0.034306,-0.088824
46.556748,0.031696,-0.014083,-0.146453
46.586741,-0.136951,-0.020276,-0.231935
46.616732,-0.238582,0.155020,-0.262504
46.656724,-0.250152,0.375118,-0.131571
46.686718,-0.091781,0.310450,-0.035799
46.716712,-0.049122,0.105166,-0.030680
46.756704,-0.147611,-0.055624,0.032895
46.786698,-0.051414,-0.011886,0.117062
46.816692,0.010060,0.038986,0.180434
46.856684,0.012515,-0.046175,0.125182
46.886677,0.010763,-0.082495,0.069364
46.916671,0.025419,-0.030790,0.041693
46.956663,0.006208,0.027423,-0.032127
46.986657,0.005020,0.041962,-0.064319
47.016651,0.023632,0.053582,-0.049639
47.056643,0.027122,0.069989,0.001873
47.086637,0.032481,0.050417,0.019941
47.116630,0.038780,0.016073,0.025039
47.156622,0.040396,-0.004398,0.005804
47.186616,0.038125,-0.015812,-0.012249
47.216610,0.046074,-0.012957,-0.000423
47.256602,0.028558,0.052157,0.032949
47.286596,0.033733,0.065203,0.060575
47.316590,0.009065,0.015546,0.072691
47.356582,-0.004923,-0.012534,0.075841
47.386575,0.005097,-0.012195,0.068914
47.416569,0.017769,0.000971,0.049060
47.456561,-0.012786,0.019241,0.005322
47.486555,-0.014524,0.035769,-0.008034
47.516549,0.000399,0.039091,-0.013161
47.556541,0.001026,0.033788,-0.000769
47.586535,0.011427,0.018024,0.010342
47.616528,0.024129,-0.003385,0.008159
47.656519,0.014267,-0.000341,0.000922
47.686513,0.023007,0.016030,0.001611
47.716507,0.030897,0.004534,0.012976
47.756499,0.028877,-0.024718,0.008967
47.786493,0.016865,-0.037141,0.007992
47.816487,0.016674,-0.034253,0.007971
47.856479,0.023564,-0.006289,-0.000214
47.886473,0.004751,-0.002684,0.002867
47.916467,-0.005083,-0.004964,0.015870
47.956459,-0.003570,-0.024849,0.034676
47.986453,-0.000709,-0.032041,0.045733
48.016447,0.000184,-0.026812,0.047115
48.056439,0.014754,-0.049051,0.042615
48.086432,0.004919,-0.038952,0.028040
48.116426,0.007131,-0.007452,0.027325
48.156418,0.015299,0.009627,0.028857
48.186412,0.001661,0.007727,0.015713
48.216406,0.013885,-0.005140,0.017314
48.256398,0.018662,-0.019242,0.014325
48.286392,0.032821,-0.035134,0.010969
48.316386,0.020746,-0.052611,0.019116
48.356378,0.030404,-0.045225,0.007618
48.386372,0.020680,-0.034134,0.011840
48.416366,0.017274,-0.017397,0.005407
48.456358,0.016894,-0.003443,-0.008328
48.486352,0.016725,-0.007860,-0.015768
48.516346,0.021412,-0.005980,-0.034406
48.556337,0.026014,-0.008707,-0.025604
48.586331,0.031648,-0.012914,-0.027724
48.616326,0.017015,-0.021846,-0.025108
48.656318,0.032149,-0.041111,-0.016147
48.686312,0.027910,-0.075356,-0.001457
48.716306,0.011385,-0.068120,-0.002181
48.756298,0.026713,-0.039439,0.019746
48.786292,0.011014,-0.029233,0.038298
48.816286,0.009629,-0.013800,0.005891
48.856278,0.008961,-0.002337,0.011732
48.886272,0.010237,0.007323,0.008742
48.916265,0.004069,0.006030,0.003745
48.956257,0.005560,0.002493,0.001933
48.996250,-0.007747,0.007674,0.006237
49.026244,-0.009963,0.013469,0.001554
49.056238,0.001874,-0.055631,0.001121
49.096230,-0.006394,-0.087943,0.010100
49.126224,0.024023,-0.003217,0.040771
49.156218,-0.002344,0.077142,0.040190
49.196210,-0.004474,0.061800,0.004710
49.226204,-0.021568,-0.006250,-0.018069
49.256198,-0.007340,-0.014885,-0.006357
49.296190,0.029138,0.003690,0.028123
49.326184,0.013944,-0.015755,0.025573
49.356178,0.009120,-0.031979,0.011537
49.386170,0.022906,-0.035031,0.014676
49.416164,0.008739,-0.030292,0.006423
49.446158,0.005056,-0.006249,-0.000650
49.486150,0.015792,-0.003207,0.003347
49.516144,0.007829,-0.016607,-0.003825
49.546138,-0.005004,-0.011241,0.007783
49.586130,0.003934,0.018116,0.013034
49.616123,-0.000900,0.008356,0.013724
49.646117,-0.003853,-0.004091,0.006418
49.686109,-0.006642,-0.014747,0.018998
49.716103,0.008396,-0.028946,0.024740
49.746097,-0.018385,-0.015649,0.024917
49.786089,0.003212,-0.010300,0.023341
49.816083,0.015067,-0.027993,0.020347
49.846077,-0.009838,-0.018527,-0.003947
49.886069,-0.002222,0.013190,-0.004466
49.916064,0.014001,0.010988,-0.008610
49.946058,-0.006073,-0.008404,-0.012337
49.986050,0.007252,-0.006856,0.003479
50.016044,0.007298,0.008019,0.024747
50.046038,0.018626,0.004661,-0.005085
50.086030,0.023569,-0.013163,0.018938
50.116024,0.019661,-0.004184,0.019104
50.156016,0.000474,-0.034172,0.007960
50.186010,0.016204,-0.064088,-0.006216
50.216004,0.010119,-0.067209,-0.035571
50.245998,-0.003812,-0.052019,-0.044609
50.285990,-0.038819,-0.008406,-0.062368
50.315984,-0.037878,0.034543,-0.057527
50.345978,-0.050041,0.056536,-0.012676
50.385970,-0.040393,0.071891,0.025311
50.415964,-0.018672,0.053990,0.065508
50.455956,0.009071,-0.001732,0.117155
50.485951,0.016507,-0.043761,0.106707
50.515945,0.030118,-0.068006,0.079266
50.545939,0.036837,-0.074675,0.052736
50.585931,0.003886,-0.061020,0.022367
50.615929,-0.005542,-0.001525,-0.005996
50.645923,-0.003684,0.046961,-0.020840
50.685915,0.003083,0.030900,-0.041718
50.715909,-0.000232,0.007187,-0.026226
50.755901,-0.003804,0.000156,0.025171
50.785896,0.001127,-0.002446,0.064013
50.815890,-0.010549,0.006011,0.069810
50.845884,0.014736,0.004981,0.066352
50.885876,0.017656,-0.041971,0.029920
50.915870,0.003350,-0.067549,0.004878
50.955863,0.017217,-0.071095,0.013293
50.985857,-0.020206,-0.035235,0.030785
51.015851,0.006189,-0.002471,0.030391
51.055843,0.007164,0.014930,0.009086
51.085837,0.001914,0.017647,-0.045560
51.115832,-0.000153,0.011914,0.019664
51.145826,0.011756,0.009190,-0.041408
51.185818,-0.002504,-0.019565,-0.023003
51.215812,0.009142,-0.044503,0.055688
51.255805,-0.012371,-0.051108,0.057444
51.285799,-0.016805,-0.031727,-0.010301
51.315793,0.001593,-0.028600,0.050679
51.355785,0.003197,-0.028476,0.039627
51.385779,-0.000169,-0.018673,-0.038529
51.415774,0.003557,0.004498,0.001997
51.455766,0.017170,0.033314,-0.053694
51.485760,0.021826,0.024905,-0.056285
51.515754,0.011688,0.001924,-0.044840
51.555746,0.018614,0.017185,-0.023775
51.585741,0.035723,0.029369,-0.002401
51.615735,0.031895,0.002083,0.008881
51.655727,0.033822,-0.023278,0.020821
51.685721,0.044278,-0.003949,0.032864
51.715715,0.038060,0.005276,0.033937
51.755708,0.024263,0.008571,0.022842
51.785702,0.024789,0.005128,0.028342
51.815696,0.028080,0.001434,0.017685
51.855688,0.018944,-0.019009,0.021309
51.885682,0.017296,-0.014709,0.034728
51.915676,0.010534,-0.000777,0.036966
51.955669,0.014892,-0.020975,0.024480
51.985663,0.008044,-0.029438,0.012809
52.015657,0.005900,-0.031117,-0.003162
52.055649,-0.001324,-0.003863,-0.027432
52.085643,0.003249,0.008325,-0.025825
52.115637,-0.000251,0.001942,-0.020335
52.155630,-0.002255,-0.013395,-0.009786
52.185624,0.003574,-0.016518,0.013587
52.215618,0.019603,-0.026402,0.015982
52.255610,0.013304,-0.049969,0.004834
52.285604,0.001929,-0.031224,0.006355
52.315598,0.013942,-0.011685,0.012846
52.355590,0.009666,-0.002323,0.007212
52.385584,-0.001870,-0.002573,0.009440
52.415579,0.005389,0.000596,0.009889
52.455571,0.008200,-0.000774,0.015304
52.485565,0.004705,-0.019962,0.007534
52.515559,-0.003502,-0.023072,0.002790
52.555551,0.007692,-0.007789,0.008676
52.585545,-0.002453,0.007981,-0.008575
52.615539,0.009249,0.018510,-0.017086
52.655531,0.001978,0.031403,-0.008434
52.685525,0.002967,0.043096,-0.009725
52.715519,0.022582,0.045127,-0.003291
52.755512,0.030015,0.004710,0.008656
52.785506,0.010384,-0.018223,0.011098
52.815500,0.018258,-0.013809,0.014695
52.855492,0.029516,-0.002755,0.025123
52.885486,0.024048,-0.001456,0.010103
52.915480,0.019554,0.000924,-0.000144
52.955472,0.006765,0.021917,-0.003166
52.985466,0.024143,0.030584,-0.004345
53.015460,0.032702,0.013322,-0.005835
53.055452,0.001980,-0.015830,-0.007369
53.085446,-0.004783,-0.007004,-0.000898
53.115441,0.005293,0.001643,0.019069
53.155433,0.003784,-0.013379,0.027471
53.185427,-0.005503,-0.036748,0.031211
53.227920,0.011121,-0.032149,0.027428
53.257914,-0.001374,-0.008279,0.009861
53.287908,0.005890,-0.004266,0.003492
53.327900,0.006993,0.002937,0.008507
53.357894,-0.004807,0.009428,0.001650
53.387888,0.007710,0.005734,0.014426
53.427880,0.025190,-0.003687,0.046961
53.457874,0.026624,-0.028026,0.033758
53.487868,0.025302,-0.046403,0.011604
53.527860,0.017728,-0.051534,0.009951
53.557854,0.004449,-0.021392,0.005931
53.587848,0.013800,-0.005746,0.014565
53.627836,-0.010388,0.007645,0.001869
53.657830,-0.002000,0.034312,-0.005738
53.687824,-0.002590,0.054726,-0.010263
53.727816,0.004233,0.042048,-0.008899
53.757810,0.013102,0.009732,-0.004533
53.787804,0.019936,-0.007404,0.001447
53.827797,0.019275,-0.024796,0.020632
53.857790,-0.002591,-0.015883,0.029324
53.887785,-0.004207,0.022186,0.030416
53.927777,0.009610,0.037759,0.029086
53.957771,0.007106,0.009373,-0.004659
53.987765,0.002460,-0.002392,-0.035586
54.027757,0.005225,0.028000,-0.019460
54.057751,0.014256,0.034500,0.001851
54.087745,-0.004931,0.011195,0.016435
54.127737,0.002722,-0.020446,0.026318
54.157731,-0.008424,-0.013277,0.044999
54.187725,-0.006283,-0.014840,0.032699
54.227717,-0.003656,-0.031251,0.016532
54.257711,-0.002551,-0.017375,-0.003941
54.287705,-0.004513,0.001536,-0.007060
54.327697,-0.007959,0.025228,-0.022288
54.357691,-0.012110,0.036079,-0.017699
54.387685,-0.003411,0.031705,-0.002247
54.427677,-0.002849,0.029389,0.016042
54.457671,-0.001164,0.029114,0.026602
54.487665,0.020597,0.024252,0.012613
54.527657,0.039694,-0.001307,0.002704
54.557651,0.036561,-0.017132,0.002685
54.587646,0.028425,-0.001797,0.010583
54.627638,0.030901,0.017354,0.018973
54.657632,0.025907,0.009348,0.009682
54.687626,0.016308,0.007180,0.014556
54.727618,-0.000009,0.028761,0.016567
54.757612,-0.007539,0.034201,0.019693
54.787606,0.004902,0.032758,0.018480
54.827598,0.020113,-0.002688,0.011169
54.857592,0.007355,-0.018025,0.006583
54.887586,-0.016016,0.013622,0.012372
54.927578,0.028167,0.014219,0.025872
54.957573,0.015816,-0.009283,0.005301
54.987567,-0.001557,-0.025168,-0.000454
55.027559,0.016920,-0.002867,0.000522
55.057553,0.006843,0.009707,-0.005021
55.087547,0.007348,-0.007003,-0.007475
55.127539,0.016704,-0.013850,-0.000330
55.157533,0.012317,-0.000870,0.008473
55.187527,0.011478,-0.005685,0.020163
55.227519,0.013019,-0.024033,0.009554
55.257513,0.029716,-0.025830,0.001845
55.287507,0.021587,-0.019835,0.000595
55.327499,0.019126,-0.001310,0.006098
55.357494,0.010556,0.000763,-0.002286
55.387488,0.015066,-0.004112,0.005065
55.427480,0.010334,-0.014484,0.008869
55.457474,0.033709,-0.020814,0.011970
55.487468,0.020713,-0.025115,0.012678
55.527460,0.017682,0.009825,-0.004078
55.557454,0.017169,0.031023,-0.014885
55.587448,0.014875,0.015157,-0.024279
55.627444,0.000876,-0.009829,-0.024453
55.657438,-0.006436,-0.005762,-0.011324
55.687432,0.000897,-0.001610,-0.001215
55.727424,0.006838,-0.006139,0.008793
55.757418,-0.012084,-0.003236,-0.003654
55.787412,-0.014779,0.006814,-0.004686
55.827404,0.009161,0.010625,-0.004392
55.857398,-0.009010,0.008268,-0.005762
55.887392,0.008545,-0.007038,-0.009442
55.927384,0.008014,0.001100,-0.007622
55.957379,0.029959,-0.004049,-0.012641
55.987373,0.021060,-0.021003,-0.006414
56.027365,0.004694,-0.027653,-0.000271
56.057359,0.027178,-0.022732,0.015549
56.087353,0.020824,-0.021680,0.010007
56.127345,0.013564,-0.027075,-0.012725
56.157339,0.017002,-0.012607,-0.026845
56.187333,0.001468,-0.003845,-0.030325
56.227325,0.005240,-0.013216,-0.033442
56.257319,-0.001846,-0.003114,-0.027054
56.287313,-0.010507,0.008500,-0.010330
56.327305,-0.018278,0.021637,0.006638
56.357299,-0.017986,0.018795,0.006108
56.387293,-0.007960,0.004547,0.017434
56.427285,0.009224,-0.011525,0.019431
56.457279,0.016307,-0.022491,0.025776
56.487273,0.011185,-0.025265,0.021260
56.527265,0.023368,-0.015692,0.006202
56.557259,0.031616,-0.013618,-0.000649
56.587253,0.009314,-0.013220,-0.009064
56.627241,0.017092,0.006477,-0.003368
56.657235,0.014299,0.007847,-0.001966
56.687229,0.018068,-0.002388,-0.011449
56.727221,0.005492,0.008413,-0.020264
56.757215,0.024662,-0.075285,-0.031232
56.787209,0.007765,-0.079397,-0.038383
56.827201,0.029642,0.020049,0.017555
56.857195,0.004433,0.003990,0.016147
56.887189,-0.017481,-0.000592,-0.007204
56.927181,-0.010556,0.138445,0.030679
56.957175,0.007416,0.117290,0.021096
56.987169,-0.021303,0.006063,-0.012377
57.027161,0.014542,-0.029535,0.006601
57.057155,0.019821,0.000475,0.042564
57.087149,0.014660,0.001773,0.033487
57.127141,0.012464,-0.017143,0.025460
57.157135,0.020149,-0.009199,0.027550
57.187129,0.002830,0.013630,0.019172
57.227121,0.010092,0.012329,0.013781
57.257115,0.023041,0.009920,0.015136
57.287109,0.018119,-0.011486,0.012186
57.327101,0.030408,-0.031816,0.019299
57.357095,0.029193,-0.017981,0.023637
57.387089,0.019408,-0.000369,0.016132
57.427081,0.020567,0.025257,0.002232
57.457075,0.025023,0.025398,0.005940
57.487069,0.011532,0.001083,-0.000131
57.527061,0.014240,-0.008576,0.027390
57.557055,0.020273,-0.017474,0.049209
57.587049,-0.005529,-0.023628,0.035357
57.627041,-0.024684,0.001088,0.002944
57.657035,-0.017679,0.025379,0.014248
57.687029,0.001437,0.025624,0.018545
57.727021,-0.015748,-0.018478,0.021291
57.757015,-0.016648,0.007134,0.032115
57.787009,-0.014239,0.049106,0.044516
57.827001,0.017822,0.026739,0.018612
57.856995,0.011692,-0.028187,-0.001658
57.886989,0.031896,-0.057094,-0.008676
57.926981,0.007957,-0.030318,0.017638
57.956975,0.013027,0.002809,0.030056
57.986969,0.008626,0.006344,0.028551
58.026961,-0.004470,0.004141,0.013015
58.056954,0.015069,0.013504,0.006904
58.086948,0.010580,0.015974,0.001161
58.126940,0.006086,0.019698,-0.005665
58.156935,0.033370,0.006385,0.003716
58.186928,0.017589,-0.017549,0.003730
58.226921,0.009338,-0.020067,0.002694
58.256915,0.003488,-0.008216,0.017707
58.286908,0.007912,-0.009734,0.018710
58.326901,-0.006523,-0.009222,-0.009246
58.356895,-0.007983,0.012794,-0.020292
58.386889,-0.005414,0.023349,-0.027619
58.426881,-0.011020,0.001748,-0.024401
58.456875,-0.021003,0.012590,-0.021169
58.486869,-0.023795,0.015441,-0.005942
58.526861,0.001608,-0.009216,0.027880
58.556855,0.002781,-0.024448,0.020058
58.586849,-0.000509,-0.033143,0.015970
58.626845,0.003726,-0.014454,-0.003116
58.656839,0.022565,-0.001401,0.014139
58.686833,0.009767,0.004395,0.009923
58.726825,0.006007,-0.005257,-0.000844
58.756819,0.014580,-0.027937,0.008660
58.786813,0.015342,-0.037617,0.017359
58.826805,0.001105,-0.019045,0.008072
58.856799,0.013151,-0.005317,0.014068
58.886793,0.020967,-0.011659,0.017638
58.926785,0.015643,-0.021324,0.008045
58.956779,0.019358,-0.006775,0.014295
58.986773,0.004726,0.013318,0.010268
59.026765,-0.009001,0.017828,0.000328
59.056759,0.003630,0.011492,0.005371
59.086753,0.002826,-0.006444,0.020468
59.126745,0.011780,-0.022422,0.012035
59.156739,0.018176,-0.021316,0.008631
59.186733,0.020220,-0.008032,-0.005114
59.226726,0.009890,0.014732,-0.029773
59.256720,-0.003052,0.045634,-0.013821
59.286714,-0.003839,0.044501,-0.009480
59.326706,0.008676,0.004586,0.012295
59.356700,0.009744,-0.004483,0.024420
59.386694,0.009448,-0.011998,0.027452
59.426686,0.015234,-0.020870,0.018824
59.456680,0.024645,-0.018075,0.003746
59.486674,0.010355,0.001187,-0.001787
59.526666,-0.006615,0.037412,-0.015476
59.556660,-0.006832,0.040416,0.000346
59.586654,-0.007302,0.038607,0.002037
59.626643,0.005373,0.008400,0.007925
59.656637,0.009768,-0.005370,0.012060
59.686631,0.012021,-0.004259,0.009211
59.726623,0.006400,0.006832,0.006695
59.756618,0.008648,0.010617,0.006971
59.786612,0.021898,0.013432,0.004067
59.826604,0.011001,-0.005152,0.003475
59.856598,-0.002157,0.015435,0.003105
59.886592,0.006847,0.041379,0.012335
59.926584,-0.004468,0.010457,0.016003
59.956579,0.002445,-0.018563,0.030533
59.986573,0.018288,-0.023554,0.033570
60.026565,0.006995,-0.020995,0.017968
60.056559,0.004542,-0.011472,0.030287
60.096551,0.005302,0.019678,0.026774
60.126545,0.002430,0.017616,0.018284
60.156540,-0.003378,0.007591,0.018415
60.186534,0.001525,0.003981,0.024944
60.226526,0.004850,-0.001044,0.025052
60.256520,-0.004096,0.007087,0.019663
60.286514,0.010052,0.011841,0.016855
60.326506,0.001183,0.010078,0.007176
60.356501,0.010145,0.006762,0.014244
60.386495,0.009803,0.001625,0.020808
60.426487,0.019267,-0.000511,0.026800
60.456481,0.010988,0.008635,0.019671
60.496473,0.017988,0.004776,0.008574
60.526467,0.018596,-0.015497,0.003263
60.556462,0.008460,-0.018275,0.000228
60.596454,0.008650,-0.009311,0.018911
60.626448,0.002642,-0.014399,0.019672
60.656442,0.012340,-0.024282,0.018961
60.696434,0.003009,-0.018748,0.005504
60.726428,-0.004563,-0.013272,-0.004945
60.756423,0.015065,0.001158,-0.003820
60.796415,-0.000603,0.000139,-0.012103
60.826409,-0.001468,-0.002925,-0.015697
60.856403,-0.008084,0.005604,-0.009731
60.896395,0.005294,0.014089,-0.000396
60.926390,-0.004205,0.000745,-0.002367
60.956384,0.010445,-0.014880,0.003051
60.996376,0.013770,-0.031064,0.003328
61.026370,0.003748,-0.021414,0.000515
61.056364,0.029297,-0.007791,0.011778
61.096357,0.004427,-0.005093,0.005997
61.126351,0.004573,-0.002020,0.014864
61.156345,0.014498,0.004394,0.028080
61.196337,0.016176,-0.015486,0.016038
61.226331,0.013540,-0.011334,0.001427
61.256326,0.011356,-0.001617,-0.003203
61.296318,0.020988,-0.006774,0.005084
61.326312,0.001337,-0.017992,0.003866
61.356306,0.009833,-0.016794,0.007202
61.396298,0.010114,0.000350,0.021946
61.426293,0.009324,-0.004148,0.015935
61.456287,0.003490,-0.005026,0.001436
61.486281,0.016382,0.002193,-0.006066
61.516274,0.015855,-0.007426,0.005623
61.556267,0.013865,-0.016054,0.004414
61.586261,0.000923,0.000785,0.002396
61.616255,0.009381,0.023787,-0.000942
61.656246,0.006783,0.026065,-0.012715
61.686240,0.009555,0.015748,-0.010580
61.716234,0.018487,0.000516,-0.013223
61.756227,0.017808,-0.011782,-0.004088
61.786221,0.016191,-0.015622,0.016003
61.816215,0.021555,-0.025627,0.025955
61.856207,0.017532,-0.025455,0.031322
61.886201,0.025011,-0.010848,0.026019
61.916195,0.008418,0.006920,0.014416
61.956188,0.002514,0.018550,-0.005423
61.986182,0.006758,0.006132,-0.003786
62.016176,-0.001607,0.000659,-0.013826
62.056168,0.005770,-0.031576,0.002278
62.086162,0.005780,-0.032823,0.011166
62.116156,0.018494,-0.028450,0.006122
62.156148,-0.007896,-0.001031,0.001452
62.186143,-0.007557,0.038595,-0.006185
62.216137,0.005730,0.056390,-0.000118
62.256129,0.007120,0.026680,-0.011521
62.286123,0.007640,0.003986,-0.001737
62.326115,0.008296,-0.003160,0.013680
62.356109,0.013218,-0.000774,0.004127
62.386103,0.007517,-0.014360,0.010058
62.426095,-0.000855,-0.007078,0.007688
62.456089,0.012143,0.009369,0.016511
62.486084,0.015458,0.021596,0.022873
62.516078,0.021580,0.020607,0.019633
62.556070,-0.000138,0.014800,0.003346
62.586064,0.006064,0.017375,-0.007416
62.626057,0.005655,0.001494,-0.010048
62.656051,0.006467,-0.024846,-0.003340
62.686045,0.006173,-0.029804,0.004464
62.726037,-0.020098,0.008346,0.005821
62.756031,0.000973,0.035062,0.016699
62.786025,-0.014701,0.023200,0.027447
62.816019,0.016758,-0.007129,0.009069
62.856011,0.000832,-0.011777,0.004444
62.886005,0.011891,0.014479,0.006401
62.925997,0.023130,0.014408,0.017623
62.955991,-0.009804,0.016378,0.014802
62.985986,-0.026351,0.052288,0.028641
63.025978,0.013766,0.021111,0.071191
63.055972,0.053607,-0.063799,0.060399
63.085966,0.005527,-0.080854,0.062522
63.125958,0.043301,0.024010,0.039986
63.155952,0.052288,0.037981,0.017663
63.185946,0.052895,0.009516,0.003395
63.225938,0.076125,-0.030546,0.024836
63.255932,0.045215,-0.022550,0.023738
63.285926,0.027766,0.022085,0.010561
63.325918,-0.003148,0.077032,0.024649
63.355912,-0.022792,0.073257,0.032801
63.385906,-0.005302,0.014543,0.073792
63.425898,0.011711,-0.073880,0.097722
63.455892,0.020586,-0.082882,0.057166
63.485886,0.020695,-0.031485,0.013042
63.525878,0.015981,0.023744,-0.043476
63.555872,0.012640,0.024557,-0.073498
63.585866,0.018555,0.011561,-0.071684
63.625858,0.024260,0.010013,-0.054709
63.655852,0.009978,0.005345,-0.025021
63.685846,-0.015024,-0.006518,0.026211
63.725838,0.015415,-0.004573,0.072582
63.755832,0.009082,-0.034956,0.075806
63.785826,0.022012,-0.063746,0.056233
63.825818,0.047511,-0.090353,0.036398
63.855812,0.041473,-0.075435,0.021135
63.885806,0.012943,-0.039499,-0.005614
63.925798,-0.008113,0.009987,-0.011796
63.955792,-0.003888,0.031215,-0.000344
63.985786,0.006054,-0.001479,0.021186
64.025778,0.000599,-0.079624,0.023230
64.055772,0.027084,-0.091937,0.027041
64.085766,0.024189,-0.045411,0.009106
64.125758,0.024969,0.001446,-0.008926
64.155752,0.031379,-0.024193,-0.011902
64.185746,-0.005045,-0.019931,-0.041629
64.225738,-0.003245,0.017402,-0.068977
64.255732,-0.008862,0.022534,-0.069539
64.285726,-0.003981,0.015592,-0.055349
64.325718,0.010177,0.002769,0.016753
64.355711,0.010677,0.016063,0.050183
64.385705,0.001029,0.045538,0.064675
64.425697,0.019769,0.038212,0.048423
64.455691,0.027114,-0.009482,0.027306
64.485685,0.019518,-0.062140,0.017748
64.525677,0.037855,-0.077915,0.022961
64.555671,0.029094,-0.050959,0.031514
64.585665,0.019147,-0.024253,0.023396
64.625656,-0.009153,0.024919,-0.002510
64.655650,0.014680,0.061687,0.001798
64.685644,0.007142,0.050853,0.024990
64.725636,-0.022417,0.043365,-0.020482
64.755630,-0.032125,0.068009,-0.019531
64.785624,0.007028,0.030943,0.029037
64.825616,0.082688,-0.087166,0.110816
64.855610,0.062614,-0.086885,0.102727
64.885604,0.011803,-0.014321,0.039662
64.925596,0.065307,0.061788,-0.027335
64.955589,0.089811,0.029116,-0.048668
64.995582,0.083681,-0.111276,-0.016144
65.025576,0.053502,-0.137185,0.047526
65.055570,0.048729,-0.115034,0.121866
65.095562,0.018601,-0.059639,0.100769
65.125556,-0.010540,-0.006492,0.021551
65.155550,-0.049598,0.086883,-0.056801
65.195542,-0.024640,0.156743,-0.074661
65.225536,-0.013243,0.094311,-0.048868
65.255530,-0.013741,-0.018813,-0.038011
65.295521,0.039579,-0.124163,0.009861
65.325515,0.047525,-0.094564,0.026044
65.355509,0.006283,-0.046038,-0.010611
65.395501,-0.023974,0.038207,-0.066083
65.425495,-0.001994,0.100331,-0.094492
65.455489,-0.030671,0.095995,-0.086494
65.485483,-0.030744,0.059916,-0.056496
65.515476,0.007336,0.010588,-0.002873
65.555467,-0.007569,-0.039505,0.055697
65.585461,-0.008227,-0.050315,0.071186
65.615455,-0.025785,-0.041303,0.085267
65.655447,-0.012089,0.006772,0.080716
65.685441,-0.029366,0.014153,0.087073
65.715435,-0.017160,-0.001492,0.040700
65.755427,-0.023028,-0.011429,0.003498
65.785421,-0.005028,0.017124,-0.010914
65.815415,0.003617,0.014415,-0.001470
65.855407,-0.004531,0.001439,-0.015068
65.885401,-0.010116,0.005905,-0.007374
65.915394,-0.012182,0.020766,0.002037
65.955386,-0.004295,0.013822,-0.000751
65.985380,-0.002235,-0.004466,0.009334
66.015374,-0.008179,0.005388,0.004847
66.055366,-0.004422,0.007144,0.010087
66.085360,-0.016427,0.010877,0.008823
66.115354,-0.014933,0.007090,0.010788
66.155346,-0.003306,0.003672,0.022052
66.185340,-0.009783,0.008108,0.030633
66.215333,-0.004198,0.010547,0.019871
66.255325,-0.011980,0.019590,0.007324
66.285319,0.003376,0.017913,-0.003146
66.315313,-0.001242,-0.003804,-0.010169
66.355305,0.017440,-0.030275,-0.005935
66.385299,0.009041,-0.031674,-0.006785
66.415293,0.009417,-0.025404,0.002089
66.455285,0.003542,0.005159,0.015930
66.485278,0.012749,0.000132,0.015380
66.515272,0.006998,-0.020554,0.003747
66.555264,-0.001915,-0.002422,0.008437
66.585258,-0.006607,0.004932,0.013077
66.615252,0.002350,0.006509,0.004462
66.655248,-0.003303,-0.013671,0.001328
66.685242,-0.002678,-0.020197,0.003173
66.715236,0.000432,-0.008196,0.011787
66.755227,-0.002617,-0.001979,0.022695
66.785221,-0.011571,-0.004092,0.011543
66.815215,0.001876,-0.005911,0.017145
66.855207,0.007351,-0.001988,0.010391
66.885201,0.004438,-0.011292,0.004397
66.915195,0.000734,-0.001503,0.004049
66.955187,0.001346,0.020048,0.006438
66.985181,0.014370,0.012419,0.005584
67.015174,0.018626,-0.012862,0.003370
67.055166,0.008712,-0.024124,-0.002611
67.085160,0.009114,-0.004813,0.007914
67.115154,0.005575,0.013129,0.020212
67.155146,0.004285,0.005223,0.023192
67.185140,0.002514,-0.011341,0.019049
67.215134,0.004103,-0.000410,0.024637
67.255125,0.012439,0.003808,0.010641
67.285119,0.012545,-0.016727,0.001506
67.315113,0.019366,-0.008913,-0.001178
67.355105,-0.002888,0.001597,0.013952
67.385099,0.002044,0.010519,0.009684
67.415093,0.009931,0.011112,0.012554
67.455085,0.012871,-0.000945,0.007651
67.485078,0.007594,-0.006222,0.000301
67.515072,0.011390,-0.000475,0.004844
67.555064,0.022849,0.010866,0.002764
67.585058,0.014450,-0.014656,-0.001058
67.615052,0.017238,-0.016393,0.006540
67.655041,0.013010,0.007465,0.013437
67.685035,0.009872,0.008469,0.013038
67.715028,0.005514,0.009586,0.008192
67.755020,0.015023,-0.000701,0.005487
67.785014,0.010723,0.007285,-0.000500
67.815008,0.023899,0.007894,-0.002204
67.855000,-0.000595,0.008559,-0.004116
67.884994,0.009573,0.016612,0.011436
67.914987,0.011097,0.008346,0.022563
67.954979,0.002004,-0.009257,0.009938
67.984973,0.001716,-0.002491,0.017861
68.014967,0.006744,0.020088,0.016921
68.054959,0.005249,-0.011834,-0.005058
68.084953,0.006496,-0.012416,-0.006475
68.114947,0.003995,0.009550,0.007371
68.154938,0.003215,0.013746,0.012871
68.184932,0.003398,0.010449,0.015569
68.214926,0.015158,0.006786,0.022028
68.254918,0.012694,0.008595,0.020115
68.284912,0.006530,-0.001167,0.017672
68.314906,0.012203,-0.003322,0.012796
68.354897,0.011011,-0.016148,0.006133
68.384891,0.014185,-0.011921,0.002935
68.414885,0.004323,-0.009093,0.003987
68.454877,-0.000885,0.016807,0.011292
68.484871,-0.000242,0.028483,0.011819
68.514865,0.002292,0.011110,0.007472
68.554856,0.007948,-0.000148,0.000235
68.584850,0.027984,-0.012192,0.009123
68.614844,0.043168,-0.027256,0.009316
68.654836,0.002924,-0.025758,0.001748
68.684830,-0.008443,-0.003525,0.002854
68.714824,0.015489,0.028038,0.014762
68.754815,0.001487,0.001668,0.003113
68.784809,0.020571,-0.023502,0.014956
68.814803,0.023517,-0.017029,0.023432
68.854795,0.022871,0.002503,0.014876
68.884789,0.014468,0.019856,0.015417
68.914782,-0.000683,0.031448,0.020455
68.954774,0.010343,0.002453,-0.005509
68.994767,0.016998,-0.030403,-0.006523
69.024761,0.026963,-0.019351,0.005922
69.054755,0.027016,-0.012582,0.021827
69.094747,0.001356,-0.000818,0.034763
69.124741,0.002979,0.014372,0.029239
69.154734,-0.000771,0.008096,0.026619
69.194726,-0.007226,0.011610,0.005820
69.224720,0.002574,0.015832,-0.001653
69.254714,0.007496,0.012620,-0.003882
69.294706,0.016933,-0.004208,0.002381
69.324699,0.015578,-0.010223,0.013400
69.354693,0.010282,-0.010751,0.019312
69.394685,0.013014,-0.009733,0.023235
69.424679,0.006801,0.010310,0.019079
69.454673,0.015805,0.020629,0.021500
69.484667,-0.004254,0.010082,0.020935
69.514659,-0.002719,0.000577,0.012086
69.554651,-0.012375,-0.000463,0.030610
69.584645,0.009081,-0.001258,0.021286
69.614639,0.006059,-0.014529,0.020179
69.654634,0.006282,-0.016063,0.011101
69.684628,0.010569,-0.008473,0.010876
69.714622,0.010187,-0.011253,0.013010
69.754614,0.003140,-0.032204,0.015079
69.784608,-0.002099,-0.027503,0.010628
69.814601,0.004374,-0.006473,0.017854
69.854593,0.000430,0.008433,0.020225
69.884587,0.000966,0.006694,0.002589
69.914581,-0.001768,-0.002755,-0.000327
69.954573,0.014129,-0.006191,-0.002350
69.984566,-0.001405,-0.006488,0.007450
70.014560,0.001295,-0.004089,0.012723
70.054552,0.017799,-0.001855,0.018764
70.084546,0.013449,-0.015071,0.020980
70.114540,0.007420,-0.020838,0.017700
70.154531,0.004618,-0.020662,0.015222
70.184525,0.005924,-0.002357,0.010705
70.214519,0.021805,-0.002742,0.013908
70.254511,0.005104,-0.006170,0.003213
70.284505,0.011408,-0.004258,-0.003731
70.314498,0.002801,0.008273,0.003090
70.354490,0.015804,0.001078,-0.000994
70.384484,0.000419,-0.017894,-0.012664
70.414478,0.003920,-0.004610,0.002046
70.454469,-0.006387,0.012845,0.013005
70.484463,0.005895,0.009762,0.010302
70.514457,0.002635,-0.009325,0.007053
70.554449,-0.005516,0.003814,0.004262
70.584443,0.013732,0.015361,0.009948
70.614436,-0.002733,0.007159,0.001961
70.654424,0.007786,-0.008008,-0.006485
70.684418,0.014103,-0.007957,-0.002323
70.714412,0.020519,-0.010171,0.001110
70.754403,0.014718,-0.012049,0.006666
70.784397,0.007862,-0.001177,0.009120
70.814391,0.012135,0.003906,0.015561
70.854383,0.005073,0.003883,0.005269
70.884377,0.015572,-0.009136,0.001428
70.914370,0.014387,-0.018215,0.003456
70.954362,0.023193,-0.031591,0.009815
70.984356,0.001023,-0.022819,0.011301
71.014350,0.002058,0.006199,0.008682
71.054342,-0.007463,0.029165,0.022425
71.084335,-0.002059,0.017331,0.009813
71.114329,-0.006024,-0.000092,0.008192
71.154321,0.015325,-0.006637,0.012154
71.184315,0.006890,-0.011059,0.021013
71.214308,-0.007726,-0.004768,0.005721
71.254300,0.003367,0.004959,0.008915
71.284294,0.004574,0.011810,-0.001301
71.314288,0.015224,-0.000221,-0.000721
71.354280,0.002682,-0.004657,0.005633
71.384273,0.002040,0.008598,0.001959
71.414267,0.006394,0.023557,0.011738
71.454259,0.009073,0.012918,0.010226
71.484253,0.006625,0.001258,0.011771
71.514246,0.012769,-0.014887,0.020624
71.554238,0.026154,-0.023079,0.027321
71.584232,0.042116,-0.039913,0.036866
71.614226,0.016621,-0.046948,0.020772
71.654216,0.002504,-0.009888,0.006615
71.684210,-0.001375,0.035565,0.007956
71.714204,-0.003989,0.049630,-0.003833
71.754196,0.000055,0.017386,-0.012557
71.784190,0.004333,-0.008982,0.000485
71.814183,0.012398,-0.015898,0.000041
71.854175,0.006478,-0.024856,0.001519
71.884169,0.018959,-0.011372,-0.003807
71.914163,0.012475,0.006626,0.011639
71.954154,0.002016,0.014458,0.011331
71.984148,0.000291,0.025368,0.017373
72.014142,0.014117,0.027045,0.022192
72.054134,0.007931,0.016242,0.018849
72.084127,0.011671,0.007186,0.022875
72.114121,0.017724,0.000486,0.009914
72.154113,0.015670,0.004672,-0.002044
72.184107,0.010841,0.012354,0.004378
72.214100,0.018157,0.011865,0.008167
72.254092,0.012305,0.009293,0.013313
72.284086,0.007932,0.007328,0.012867
72.314080,0.000756,0.012679,0.008214
72.354071,0.017020,0.019821,0.005531
72.384065,0.006707,-0.002869,-0.001130
72.414059,0.021277,-0.014309,-0.003050
72.454051,0.017278,-0.021720,0.008804
72.484044,0.014158,-0.016753,0.009958
72.514038,0.015078,0.001509,0.022109
72.554030,0.004735,0.014028,0.001747
72.584024,0.005167,0.023039,-0.007408
72.614018,0.013298,0.022912,-0.002585
72.654009,0.008351,-0.002464,0.000305
72.684003,0.006792,-0.001035,-0.007739
72.713997,0.016092,0.009210,0.007444
72.753989,0.001617,0.010478,0.009009
72.783982,-0.001561,0.013303,-0.002575
72.813976,0.005336,0.025541,0.005749
72.853968,0.015715,0.012111,0.003170
72.883961,0.016987,-0.012521,0.000324
72.913955,0.009967,-0.012303,0.003704
72.953947,0.011466,-0.000602,0.015617
72.993940,-0.001718,0.007707,0.018576
73.023934,-0.001973,0.014802,0.013187
73.053928,0.007805,0.008439,-0.008152
73.093919,0.009374,-0.012451,-0.027687
73.123913,0.012749,-0.034837,-0.027782
73.153907,0.014096,-0.048899,-0.010761
73.193898,-0.003063,-0.023893,0.016202
73.223892,-0.006810,0.006980,0.039983
73.253886,0.006053,0.025492,0.026528
73.293878,0.003470,-0.008438,-0.000940
73.323871,0.002829,-0.017835,-0.010312
73.353865,0.024195,-0.011036,0.005206
73.393857,0.009119,-0.005953,0.016110
73.423851,-0.005439,-0.004085,0.027058
73.453844,-0.002932,0.016429,0.034438
73.483838,0.013400,0.024351,0.035538
73.523829,0.009221,0.002701,0.026897
73.553823,0.026811,-0.012795,0.012384
73.583817,0.013611,-0.033864,0.020908
73.623808,0.034055,-0.040472,0.030669
73.653802,0.031301,-0.049381,0.033120
73.683796,0.034127,-0.067372,0.025416
73.723788,0.020992,-0.064702,0.012947
73.753782,-0.022412,-0.063903,-0.013403
73.783775,-0.010944,-0.037020,-0.016906
73.823767,-0.033163,-0.025611,-0.011937
73.853761,-0.005379,-0.013272,-0.013659
73.883754,0.010162,-0.000297,-0.001903
73.923746,0.029451,-0.020090,0.009081
73.953740,0.004583,-0.020993,0.013988
73.983734,-0.002819,-0.012417,0.015393
74.023725,0.003025,0.002074,0.022833
74.053719,0.018800,0.016245,0.020465
74.083713,0.007591,0.026918,0.007409
74.123705,0.021367,0.029517,-0.004248
74.153698,0.045642,0.012754,0.013228
74.183692,0.047459,-0.043975,0.016333
74.223684,0.030031,-0.077412,0.018353
74.253678,0.002842,-0.040260,0.030599
74.283671,0.016833,0.023031,0.015754
74.323663,0.005793,0.041036,0.001770
74.353657,0.011721,0.016488,-0.016986
74.383651,0.001060,-0.018965,-0.017735
74.423642,0.024565,-0.017312,0.001155
74.453636,0.026583,-0.013352,0.003365
74.483630,0.030166,-0.025771,0.010690
74.523622,-0.002804,-0.017463,0.001407
74.553615,0.014895,0.012697,-0.006606
74.583609,0.011416,0.015763,-0.002012
74.623601,0.016071,0.008768,-0.024786
74.653599,0.020280,-0.001087,-0.021686
74.683593,0.037410,0.001778,-0.015363
74.723585,0.005600,-0.039738,-0.001309
74.753579,0.000330,-0.030534,-0.002679
74.783572,-0.002647,0.006373,0.010569
74.823564,-0.004209,0.017790,0.013241
74.853558,0.008360,0.007996,0.001456
74.883552,-0.014970,0.002015,0.002111
74.923543,0.012667,0.000584,-0.003923
74.953537,0.004121,-0.004524,0.010972
74.983531,-0.010270,-0.002511,0.007320
75.023522,0.004748,0.000242,-0.000056
75.053516,0.001652,0.003041,0.002630
75.083510,0.012790,-0.002651,0.009082
75.123502,-0.007126,-0.017686,0.017804
75.153495,0.001577,-0.007223,0.023510
75.183489,0.009148,0.000545,0.032936
75.223481,0.006138,-0.017030,0.007029
75.253474,0.009261,-0.008060,0.004128
75.283468,0.013468,-0.010477,-0.002383
75.323460,0.011495,-0.006707,0.009346
75.353454,0.018659,-0.013231,0.008389
75.383447,0.013442,-0.022323,0.019957
75.423439,0.019411,-0.009449,0.015348
75.453433,0.017771,-0.004839,0.016368
75.483427,0.002307,0.012559,0.002552
75.523418,0.007803,0.042655,0.002422
75.553412,-0.004795,0.048699,-0.001629
75.583406,-0.003127,0.040706,-0.007296
75.623397,0.003300,0.016868,0.004984
75.653390,0.001407,0.004392,0.007442
75.683384,0.006009,0.000341,0.020415
75.723375,-0.002845,0.003992,0.013793
75.753369,0.016282,0.001899,0.014080
75.783363,0.014964,0.002767,0.015512
75.823355,0.010642,0.010036,-0.005152
75.853348,0.027545,0.008844,0.005068
75.883342,0.008470,0.016057,0.004517
75.923334,0.023454,0.023533,0.010421
75.953327,0.024138,0.007728,0.014609
75.983321,0.017719,-0.012807,0.009840
76.023313,0.012458,-0.008343,0.008147
76.053307,0.010661,0.001536,0.010375
76.083300,0.010242,0.016724,0.009001
76.123292,-0.006266,0.021979,0.027662
76.153286,0.011833,0.018116,0.015367
76.183280,0.005795,-0.003899,0.014035
76.223271,0.009801,-0.001873,-0.001256
76.253265,0.009761,0.002984,0.004524
76.283259,0.004689,0.018512,0.000890
76.323250,0.006861,0.020091,0.011087
76.353244,-0.006404,0.009908,0.011041
76.383238,0.006150,0.003353,0.004515
76.423229,0.014675,-0.001677,0.010817
76.453223,0.019257,0.002466,-0.004984
76.483217,0.015480,0.000501,-0.005490
76.523209,0.001437,0.013747,-0.000947
76.553202,0.014058,0.021425,-0.001389
76.583196,0.018425,0.004413,0.002737
76.623188,0.006317,-0.026620,-0.002171
76.653181,0.020064,-0.034099,0.010765
76.683175,0.015308,-0.020912,0.011429
76.723167,0.004872,-0.000108,0.019637
76.753160,0.011202,-0.006354,0.024318
76.783154,0.009558,-0.014711,0.017703
76.823146,-0.000046,-0.006237,0.008369
76.853140,0.004244,0.020562,0.016830
76.883133,0.023604,0.011165,0.005725
76.923125,0.011185,-0.029102,-0.008706
76.953119,0.013095,-0.024258,0.002166
76.995611,0.012448,0.004249,0.021666
77.025604,0.002916,0.010261,0.019861
77.055598,-0.000712,0.001556,0.012046
77.095590,0.002921,0.007477,0.006731
77.125583,0.015936,0.002806,0.010916
77.155577,0.009553,-0.007491,0.002957
77.195569,0.018727,-0.006689,-0.005319
77.225562,0.009279,-0.008730,0.007777
77.255556,0.009873,0.007404,0.010347
77.295548,-0.001594,0.011163,0.017706
77.325542,-0.004206,0.008464,0.016467
77.355535,0.007172,0.008324,0.014975
77.395527,0.014657,0.003232,0.007207
77.425521,0.009571,-0.003969,-0.007802
77.455514,0.007171,-0.012789,-0.005468
77.495506,0.018176,-0.010666,0.010912
77.525500,0.003934,-0.016789,0.009592
77.555493,0.020110,-0.030046,0.016084
77.585487,-0.003010,-0.008982,0.015787
77.625479,0.020969,-0.010844,0.009250
77.655468,0.016014,-0.023004,0.001378
77.685462,0.011827,-0.013585,-0.009599
77.725454,0.013733,-0.001593,0.009175
77.755447,0.004912,-0.004444,0.009630
77.785441,-0.001331,-0.007283,0.001511
77.825433,0.003944,-0.008796,-0.001497
77.855427,0.006870,-0.012594,-0.002073
77.885420,0.009909,-0.015039,0.005042
77.925412,0.011790,-0.022600,-0.006499
77.955406,0.015430,-0.023560,-0.008567
77.985399,0.001911,-0.003291,-0.012914
78.025391,0.005392,0.017156,-0.010494
78.055385,-0.007585,0.019201,-0.003349
78.095376,-0.002431,0.013347,0.001762
78.125370,0.009325,-0.002020,0.008627
78.155364,0.002617,-0.011594,0.001866
78.195355,0.009612,-0.006392,0.004893
78.225349,0.004431,-0.006215,0.011457
78.255343,0.005097,0.006621,0.015463
78.295334,0.003549,0.010696,0.012346
78.325328,0.002685,0.017270,0.017964
78.355322,0.015622,0.013981,0.013464
78.395314,0.007714,-0.016794,0.009331
78.425307,0.013155,-0.006093,0.009177
78.455301,0.005998,-0.001117,0.026006
78.495293,0.007886,0.003045,0.017336
78.525286,0.009974,0.003322,0.011639
78.555280,0.001591,0.009543,0.006008
78.595272,0.009573,0.021182,0.013317
78.625265,0.005779,0.008217,0.021375
78.655263,0.006592,-0.003688,0.013055
78.695255,0.010118,-0.011011,0.015929
78.725248,0.015590,-0.008387,0.012113
78.755242,0.012459,0.003566,0.006317
78.795234,0.008045,0.008576,0.013037
78.825227,0.008869,0.009037,0.021904
78.855221,0.012383,0.017221,0.017278
78.885215,0.008918,0.014054,0.012747
78.925207,0.008733,0.022346,-0.000922
78.955200,0.022871,0.011574,0.005297
78.995192,0.016108,0.003957,-0.001102
79.025186,0.006705,-0.001300,0.001604
79.055179,0.012067,0.002324,0.017215
79.095171,0.018353,0.014194,0.000466
79.125165,0.004487,0.004820,-0.004163
79.155158,0.011858,0.006491,-0.007809
79.195150,0.012267,0.006405,0.006232
79.225144,0.006394,0.005306,0.007968
79.255137,0.005956,0.014967,0.005506
79.295129,0.009580,0.021002,0.003491
79.325123,0.009720,0.010269,0.001880
79.355116,0.006369,-0.006379,0.005701
79.395108,0.012514,0.001962,0.006240
79.425102,0.013232,0.001667,0.011955
79.455095,0.011844,0.002622,0.016531
79.495087,0.013701,0.006537,0.010052
79.525081,-0.000004,0.010391,0.012235
79.555074,0.008489,0.019628,0.011513
79.595066,0.005695,0.006004,0.011564
79.625060,0.013173,-0.003879,0.004305
79.655053,0.011938,-0.004380,0.003219
79.695045,0.008652,0.007764,0.018759
79.725039,0.013240,0.010162,0.020265
79.755032,0.005971,0.009189,0.017659
79.795024,0.007479,0.004399,0.016354
79.825018,-0.005314,0.013858,0.003917
79.855011,0.019818,0.012425,-0.003853
79.895003,0.006050,0.005980,-0.001771
79.924997,0.013049,0.004174,0.009322
79.954991,0.002323,0.008444,0.019906
79.994982,0.007967,-0.000324,0.008767
80.024976,0.012597,-0.018311,-0.000492
80.054970,0.004859,-0.022230,-0.006653
80.094961,0.020696,-0.014140,0.000659
80.124955,0.004563,-0.009301,0.011773
80.154949,0.007813,-0.007002,0.004821
80.194940,0.006548,-0.009949,0.015791
80.224934,0.000486,-0.004220,0.002273
80.254928,0.013286,-0.002703,0.002292
80.294919,-0.000912,-0.001844,0.001292
80.324913,0.018849,-0.012333,0.004757
80.354907,0.009995,-0.019725,0.004550
80.394898,0.006816,-0.017533,-0.000932
80.424892,0.006448,-0.011274,0.012884
80.454886,0.003805,-0.009839,0.011721
80.494877,0.006521,-0.008436,0.011397
80.524871,-0.000666,-0.010874,0.009938
80.554865,0.000403,-0.003890,0.010908
80.594856,0.011465,-0.002541,0.004100
80.624850,0.016825,-0.026240,-0.000134
80.654841,0.004790,-0.023547,0.001253
80.694832,0.009157,0.004780,0.022860
80.724826,0.000799,0.009684,0.018737
80.754820,-0.000472,-0.000397,0.011451
80.794811,0.012713,0.007381,0.003633
80.824805,0.016710,0.008336,0.006863
80.854799,-0.006483,0.001905,0.002230
80.894790,0.006461,0.002805,0.003814
80.924784,-0.002066,0.011216,0.010663
80.954778,-0.002591,0.007430,0.007243
80.987271,-0.008571,-0.008622,0.017820
81.027263,0.002140,-0.004515,0.025215
81.057256,0.006132,-0.007612,0.025734
81.087250,0.009375,-0.013365,0.016429
81.127242,0.016368,0.005867,-0.003444
81.157235,0.015133,0.005484,-0.007429
81.187229,0.024879,-0.001094,-0.002474
81.227221,0.020284,-0.020111,0.008604
81.257214,0.013070,-0.028387,0.012509
81.287208,-0.008517,-0.010714,0.022511
81.327200,0.010502,0.024165,0.023053
81.357193,0.008977,0.008318,0.014335
81.387187,0.013012,-0.007396,-0.004657
81.427179,0.006660,-0.003817,0.008175
81.457172,0.005884,0.011508,0.008077
81.487166,0.001270,0.014020,0.014040
81.517159,-0.001858,0.014413,0.009495
81.547152,0.013353,0.008483,0.005851
81.587144,-0.006600,-0.010844,-0.001564
81.617137,-0.005365,-0.004013,-0.004385
81.647130,0.008266,0.000477,0.001533
81.687122,-0.004105,0.003900,-0.002276
81.717115,0.003800,0.005330,-0.001493
81.757107,0.003157,0.007107,0.002903
81.787101,0.006172,0.000381,0.004759
81.817094,0.010635,-0.006780,0.007878
81.857086,0.011753,-0.002713,0.005057
81.887080,0.018328,-0.011488,0.004379
81.917073,0.020887,-0.010452,0.006282
81.957065,0.014865,-0.010312,0.013627
81.987059,0.022142,-0.009215,0.011436
82.017052,0.015692,-0.012504,0.012549
82.057044,0.029883,-0.002740,0.021118
82.087038,0.030110,-0.005737,0.022960
82.117031,0.020402,-0.009696,0.005616
82.147025,0.018934,-0.008224,-0.001100
82.187017,0.013260,0.004038,0.014778
82.217010,0.005424,0.010084,0.008160
82.247004,-0.001427,-0.000557,0.003058
82.286995,-0.003018,0.007330,0.001557
82.316989,0.003638,0.017205,-0.001847
82.356981,0.005100,0.004364,0.002545
82.386974,-0.000614,-0.004216,0.002379
82.416968,0.010451,0.014856,0.013085
82.456960,0.017439,0.014973,0.018298
82.486953,0.004283,0.015023,0.012495
82.516947,0.004082,0.021943,0.014552
82.556939,0.006331,0.024082,0.015764
82.586932,0.013114,0.010022,0.013589
82.616926,0.008167,-0.005414,0.007825
82.656921,0.014935,0.013008,0.006894
82.686914,0.021649,0.011570,0.012060
82.716908,0.006674,0.006763,0.011752
82.756899,0.014261,0.021514,0.009334
82.786893,0.009204,0.014617,0.011153
82.816887,0.009018,0.014376,0.012380
82.856878,0.021611,-0.007317,0.001234
82.886872,0.013635,-0.020131,-0.008467
82.916866,0.017408,-0.013470,-0.000283
82.956857,0.006785,0.009188,0.011815
82.986851,0.005626,0.018492,0.003586
83.016845,0.006049,0.021537,0.002410
83.056836,0.003398,0.021601,-0.007253
83.086830,0.011477,0.014381,-0.002632
83.116823,0.013202,0.008760,-0.005876
83.156815,0.014358,-0.009499,-0.011615
83.186809,0.010299,-0.002204,-0.008543
83.216802,0.011265,0.011896,0.001523
83.256794,-0.001703,0.016157,0.008735
83.286788,0.005369,0.014157,0.011284
83.316781,0.011792,-0.002985,0.015842
83.356773,0.005087,-0.007595,0.003588
83.386766,0.016543,-0.006192,-0.000970
83.416760,0.020274,-0.000601,-0.000350
83.456752,0.006532,0.010583,-0.001704
83.486745,0.015318,0.004278,0.011523
83.516739,0.007577,-0.002856,0.009607
83.556731,0.004315,-0.011037,0.002931
83.586724,0.010194,-0.001637,0.006201
83.616718,0.010603,-0.003640,-0.006324
83.656707,0.012535,-0.024624,-0.008222
83.686701,-0.002057,-0.004236,0.010457
83.716695,0.006273,0.008683,0.030109
83.756686,0.001023,0.004219,0.024131
83.786680,0.005660,-0.004813,0.016153
83.816674,0.005992,-0.004365,0.006799
83.856665,0.008049,0.002645,0.003427
83.886659,0.009051,-0.001643,0.004502
83.916652,0.007433,-0.011807,0.004342
83.956644,0.002888,0.003299,0.003706
83.986638,0.018381,0.008438,0.012026
84.016631,-0.005788,-0.000891,0.012483
84.056623,0.007863,-0.007774,0.014686
84.086617,0.007328,-0.004663,0.013043
84.116610,0.003676,-0.003705,0.006498
84.156602,0.002847,-0.006695,-0.002130
84.186595,0.010236,-0.001259,0.001232
84.216589,0.005777,-0.003350,0.007428
84.256581,0.014622,-0.006865,0.020347
84.286574,0.014827,-0.008603,0.025200
84.316568,0.013471,-0.010878,0.015286
84.356559,0.017139,0.002022,0.013742
84.386553,0.029435,0.014118,-0.003448
84.416547,0.020748,-0.006468,-0.007418
84.456538,0.008306,-0.008354,-0.006657
84.486532,0.000105,0.007569,0.010495
84.516525,-0.001789,0.012146,0.020763
84.556517,-0.000918,0.010021,0.013620
84.586511,-0.000284,0.004457,0.000368
84.616504,0.005672,0.009982,-0.002927
84.656496,0.001544,0.003593,-0.000334
84.686489,0.012000,-0.010924,-0.001175
84.716483,0.007039,-0.013680,-0.000830
84.756475,0.009339,-0.010490,0.003640
84.786468,0.007384,-0.008955,0.011292
84.816462,0.006154,0.004741,0.016122
84.856453,0.003076,0.009189,0.011759
84.886447,0.007544,-0.001920,0.015878
84.916441,0.007117,-0.010732,0.006936
84.956432,0.012504,-0.010196,0.004233
84.990176,0.013977,-0.000351,0.011204
85.020170,0.010172,-0.007032,0.013841
85.060162,0.010706,-0.004009,0.020276
85.090155,0.004918,-0.001576,0.022705
85.130147,0.008284,-0.007315,0.008371
85.160140,0.007455,-0.010689,0.013796
85.190134,0.006615,0.002279,-0.009873
85.230126,0.010118,-0.000028,-0.000285
85.260119,0.005482,0.003576,-0.002422
85.290113,-0.001654,-0.001628,0.010578
85.330104,-0.003881,-0.001207,0.012338
85.360098,-0.004878,0.004755,0.015748
85.390092,0.004666,0.006544,0.008172
85.430083,-0.001711,-0.003551,0.001935
85.460077,-0.003360,0.003488,0.006293
85.490071,0.012974,-0.003246,0.006171
85.520063,0.013619,-0.016429,0.003573
85.550056,0.010852,-0.011101,0.003681
85.580050,0.005088,-0.001193,0.006948
85.620041,0.006927,0.001436,0.016225
85.650038,0.005348,-0.007930,0.013269
85.680032,0.011279,-0.010799,0.020975
85.720023,0.008601,-0.006958,0.013421
85.750017,0.011086,0.002289,0.002323
85.780010,0.015562,0.004526,0.003817
85.820002,0.004995,-0.000895,0.000862
85.849996,0.009758,0.001728,0.015018
85.879989,0.013487,0.001891,0.037208
85.919981,0.000754,0.002539,0.019880
85.949974,0.006859,0.004481,0.023864
85.979968,0.008232,0.020840,0.014936
86.019959,0.019819,-0.003272,-0.005563
86.049953,0.014157,-0.008548,-0.017116
86.079947,0.018783,0.008170,0.000884
86.119938,0.009020,0.012633,0.011469
86.149932,0.005282,0.013194,0.006911
86.179926,0.005953,0.015176,0.011436
86.219917,0.010058,0.005625,0.006493
86.249911,0.006389,0.011920,0.003002
86.279904,0.008623,0.011045,0.001962
86.319896,0.011259,0.006882,-0.006975
86.349889,0.013439,0.009555,0.000131
86.379883,0.005553,0.010341,0.001512
86.419875,0.011547,0.012351,0.007319
86.449868,0.013905,0.002227,0.011591
86.479862,0.008330,-0.014132,0.012708
86.519853,0.003653,-0.001474,0.007195
86.549847,0.014499,0.011887,0.001378
86.579841,0.015773,0.009654,-0.002400
86.619832,0.006403,0.007644,0.001845
86.649827,0.020508,0.001336,0.015034
86.679820,0.013587,-0.006119,0.021980
86.719812,0.009518,-0.009392,0.011070
86.749806,-0.002295,0.013130,0.018857
86.779799,0.022083,0.021573,0.001026
86.819791,0.012809,-0.008761,-0.005176
86.849784,0.004461,-0.009372,0.006115
86.879778,0.010682,0.001130,0.024876
86.919769,0.002016,0.012576,0.024307
86.949763,0.002428,0.005993,0.017010
86.979757,-0.003408,0.011552,0.007558
87.019748,0.008573,0.019128,0.000856
87.049742,0.014503,0.002793,0.006020
87.079735,0.005708,-0.014004,0.001769
87.119727,0.013303,-0.007415,-0.003180
87.149721,0.003906,0.000145,0.008794
87.179714,0.004723,-0.010095,0.002846
87.219706,0.008913,-0.015439,0.016023
87.249699,0.007176,-0.006607,0.019617
87.279693,0.005971,-0.007675,0.018519
87.319685,0.006861,-0.006681,0.010236
87.349678,0.001770,0.002150,0.000503
87.379672,0.009719,0.002623,0.002700
87.419663,0.010042,-0.020435,0.010215
87.449657,0.004173,-0.018477,0.011811
87.479650,0.012258,-0.013102,0.017146
87.519642,0.002042,0.000033,0.019515
87.549636,0.015244,-0.003250,0.005774
87.579629,0.013837,-0.017646,0.002468
87.619621,0.005928,-0.008410,-0.003373
87.649610,0.003590,-0.002314,0.012038
87.679604,0.007319,0.002358,0.015869
87.719595,0.001691,-0.002005,0.003368
87.749589,0.006679,-0.007958,0.004686
87.779583,0.000216,-0.000053,0.002289
87.819574,0.013663,0.001216,0.013814
87.849568,0.010089,-0.008753,0.005006
87.879561,0.008096,-0.011392,0.005663
87.919553,0.006087,0.013816,0.008244
87.949547,0.004214,0.011111,0.004693
87.979540,0.007050,0.001092,0.005730
88.019532,0.006693,-0.005799,0.010889
88.049525,0.006320,-0.004101,0.007227
88.079519,0.012035,-0.009489,0.014594
88.119510,0.005968,-0.009200,0.010043
88.149504,0.011271,-0.011721,0.007423
88.179498,0.005517,-0.015543,0.011270
88.219489,0.001831,-0.000497,0.004153
88.249483,0.007279,0.000736,0.013784
88.279476,0.001138,0.005024,0.012654
88.319468,0.012715,-0.019531,0.008141
88.349461,0.011252,-0.026396,-0.003113
88.379455,0.007649,-0.012356,0.003251
88.419446,-0.002310,0.009510,0.013948
88.449440,0.003448,0.007440,0.009418
88.479434,0.003819,-0.004292,0.010993
88.519425,-0.002530,-0.009376,0.009122
88.549419,0.016836,0.000271,0.005102
88.579412,-0.000759,-0.012567,0.003374
88.619404,0.009371,-0.005989,-0.005159
88.649396,0.009987,-0.001428,0.010596
88.679390,0.016507,-0.002790,0.009849
88.719382,-0.004883,-0.004559,0.007751
88.749375,0.003792,0.013385,0.011742
88.779369,0.010371,0.009052,0.011501
88.819360,0.006315,-0.008291,0.006319
88.849354,0.009765,-0.010260,0.006240
88.879347,0.003504,-0.002174,0.012488
88.919339,0.014491,-0.000601,0.009540
88.949333,0.008004,-0.009790,0.017676
88.989326,0.004868,-0.001846,0.005487
89.029317,0.000750,-0.001733,0.018874
89.059311,0.014722,0.007815,0.007628
89.089304,0.013834,-0.009679,0.010597
89.129296,0.009562,-0.009100,0.008675
89.159289,0.003958,0.011395,0.019739
89.189283,0.002431,0.024828,0.026712
89.229274,-0.000984,0.025454,0.021725
89.259268,0.007996,0.016516,0.015455
89.289262,0.004739,0.003220,0.014362
89.329253,0.009987,0.002267,0.025388
89.359247,-0.001372,0.013424,0.023763
89.389240,0.005859,0.017037,0.025303
89.429232,0.007542,0.016565,0.017199
89.459225,0.003544,0.010080,0.005343
89.489219,0.016246,0.002929,0.004923
89.519211,0.014094,-0.008452,0.008250
89.549205,0.010369,-0.008524,0.003878
89.589196,0.018553,-0.006878,0.010645
89.619190,0.009801,-0.004778,0.005447
89.649184,0.013188,-0.002977,0.014129
89.689176,0.008744,-0.004537,0.027153
89.719170,0.014807,-0.006041,0.039600
89.749163,-0.005749,0.001270,0.023065
89.789155,-0.006751,0.007777,0.023608
89.819148,0.022097,0.014243,-0.004733
89.849142,-0.000495,-0.003541,-0.018874
89.889133,0.017431,-0.013085,-0.011534
89.919127,0.003313,0.008713,0.007096
89.949120,0.008756,0.014917,0.010837
89.989112,-0.000678,0.015676,0.008324
90.019106,0.003836,0.015196,0.005272
90.049099,-0.002791,0.020467,-0.001701
90.089091,0.004987,0.008260,0.004496
90.119084,0.014603,0.000186,-0.000272
90.149078,0.007000,-0.003553,0.009668
90.189069,0.004981,0.016505,0.018016
90.219063,-0.003009,0.021613,0.022355
90.249056,0.002402,0.012115,0.020018
90.289048,0.006409,-0.007682,0.010032
90.319041,0.007502,-0.024775,0.005059
90.349035,0.016443,-0.027374,-0.006464
90.389026,0.018695,-0.019220,-0.002690
90.419020,0.010552,-0.018161,0.006653
90.449014,0.009149,-0.018116,0.013871
90.489005,0.003329,-0.000724,0.011305
90.518999,0.000762,-0.002223,0.007889
90.548992,0.007954,-0.001384,0.000899
90.588984,0.015142,-0.022444,-0.002785
90.618977,0.014331,-0.027643,-0.007881
90.648971,0.008302,-0.019137,0.003581
90.688962,-0.002762,0.006088,0.008020
90.718956,0.000117,0.013432,0.009266
90.748949,-0.000312,0.007197,0.005724
90.788941,0.004544,-0.001595,-0.003286
90.818934,0.015451,-0.019122,0.003852
90.848928,0.023058,-0.041509,0.007915
90.888920,0.013195,-0.045437,0.005717
90.918913,-0.001288,-0.012832,0.010519
90.948907,-0.004056,0.025332,0.014870
90.988898,-0.008225,0.033441,0.020707
91.018892,-0.000142,0.021106,0.020740
91.048885,0.008969,0.004890,0.019391
91.088877,0.017247,-0.005247,0.006623
91.118870,0.019642,-0.018672,0.004451
91.148864,0.001279,-0.009338,-0.000055
91.188855,0.015694,-0.003746,0.015387
91.218849,0.006564,0.000627,0.020594
91.248843,0.007112,-0.005219,0.018700
91.288834,0.001991,0.001502,0.022450
91.318828,0.013607,0.005101,0.009161
91.348821,0.006076,-0.009687,0.000280
91.388813,0.004880,0.004757,-0.002568
91.418806,0.001267,0.011962,0.011713
91.448800,-0.001145,0.007386,0.009836
91.488791,-0.012947,0.006513,0.010057
91.518785,-0.003313,0.019819,0.013070
91.548778,-0.002356,0.021234,0.009491
91.588770,-0.000683,0.008654,0.010637
91.618763,0.020018,-0.007327,0.000976
91.648760,0.022948,-0.020526,-0.009965
91.688751,0.012684,-0.013034,-0.002886
91.718745,0.019019,0.000143,0.006901
91.748739,0.002556,0.015764,0.006187
91.788730,0.007792,0.006144,0.006676
91.818723,0.017655,-0.008881,0.003603
91.848717,0.014683,-0.020442,0.001376
91.888709,0.018806,-0.018078,-0.003733
91.918702,0.017659,-0.008863,0.000432
91.948696,0.022780,-0.008836,0.005963
91.988687,0.006983,-0.013243,0.000404
92.018681,0.008923,-0.012240,0.005882
92.048674,0.002880,0.006460,0.014313
92.088666,0.008735,-0.006651,0.011366
92.118659,0.002321,-0.019621,-0.001132
92.148653,0.004864,-0.012326,0.007355
92.188644,0.000329,-0.000441,0.013780
92.218638,0.004848,0.006747,0.005584
92.248631,0.008743,0.003234,0.013754
92.288623,0.000063,0.012811,0.018053
92.318616,0.009329,0.015927,0.025400
92.348610,-0.005284,0.016260,0.023702
92.388601,0.007065,0.019424,0.013498
92.418595,0.016053,0.013288,0.013064
92.448589,0.014578,-0.003050,0.007218
92.488580,0.012758,-0.001332,0.007617
92.518574,0.010276,0.010906,0.020759
92.548567,0.006865,0.018569,0.022821
92.588559,0.018711,0.019275,0.018519
92.618552,0.030256,0.009237,0.013846
92.648543,0.028001,0.006088,0.002156
92.688534,0.036622,0.001487,0.007331
92.718528,0.036717,-0.005364,0.018928
92.748521,0.035500,-0.017565,0.011263
92.788513,0.016177,-0.022536,0.020325
92.818506,0.017002,-0.004043,0.003015
92.848500,0.005437,0.008804,-0.007513
92.888491,0.008495,0.002893,-0.019091
92.918485,0.005699,-0.002636,-0.009835
92.948478,0.003850,-0.007892,-0.011490
92.990971,-0.007384,0.005960,-0.020090
93.020964,-0.000541,0.022610,-0.017333
93.060956,-0.006657,0.028356,-0.031441
93.090949,-0.003711,0.006259,-0.013089
93.120943,0.008228,-0.011252,-0.018189
93.160934,-0.002215,-0.015067,-0.006423
93.190928,0.000729,0.005227,-0.003278
93.220921,0.003394,0.009872,-0.005638
93.260913,-0.008362,0.002333,0.002902
93.290906,-0.000414,0.016933,0.018556
93.320900,0.000486,0.031226,0.031356
93.360891,0.005552,0.028964,0.025881
93.390885,0.000058,0.008315,0.021894
93.420878,0.020288,-0.015621,0.018150
93.460870,0.016313,-0.027554,0.010355
93.490863,0.013770,-0.025815,0.014666
93.520856,-0.000907,-0.009662,0.033993
93.550850,0.014158,0.004897,0.041203
93.590842,0.008411,-0.014643,0.030353
93.620835,0.000876,-0.008216,0.018688
93.650829,0.009732,0.021351,0.036681
93.690819,0.008214,0.021706,0.017538
93.720813,-0.002687,-0.000098,0.013734
93.750806,0.006765,-0.001249,0.013381
93.790798,0.011534,0.000489,0.012479
93.820791,0.002052,-0.011254,0.020434
93.850785,0.013086,-0.010147,0.006627
93.890776,0.014625,-0.009825,0.006323
93.920770,0.016144,0.002642,0.003521
93.960761,0.003811,0.004592,-0.002667
93.990755,0.011937,-0.002600,-0.001663
94.020748,0.011064,-0.008869,-0.001720
94.060740,0.000099,-0.010399,0.002185
94.090733,0.002765,0.008849,-0.002590
94.120727,0.003781,0.002630,-0.000068
94.160718,0.010023,-0.015072,-0.002160
94.190712,0.012045,-0.012863,0.007858
94.220705,0.006179,-0.014177,0.010310
94.260697,0.001517,-0.002430,0.011952
94.290690,0.012667,-0.001420,0.008755
94.320684,0.009508,-0.009965,0.001079
94.360675,0.002201,-0.009340,-0.003916
94.390669,0.007970,-0.006906,0.005029
94.420662,0.004397,-0.003720,0.006497
94.460654,0.007727,-0.005644,0.002044
94.490647,0.003588,0.001153,-0.002366
94.520641,0.001150,0.002744,0.006024
94.560632,0.012094,0.002238,0.014158
94.590626,0.001266,-0.009157,0.006809
94.620620,0.004235,-0.010802,0.002616
94.660611,0.015239,-0.000998,0.010594
94.690604,0.001940,-0.006696,0.003136
94.720598,-0.002771,-0.000518,0.006724
94.760589,0.001456,0.019893,0.013057
94.790583,0.008728,0.016862,0.011827
94.820577,-0.005219,-0.004790,0.005478
94.860568,0.016381,-0.015015,-0.002131
94.890562,0.005599,-0.021574,0.008526
94.920555,0.012255,-0.014781,0.005335
94.960546,0.005134,-0.008098,0.016578
94.990540,0.007449,-0.005337,0.010902
95.020534,0.001723,0.000737,0.011806
95.060525,0.014869,-0.003531,0.006671
95.090519,0.007890,-0.011465,-0.001495
95.120512,0.016567,-0.012826,-0.001055
95.160503,0.004515,-0.010205,0.008437
95.190497,0.005054,-0.001922,0.012739
95.220491,0.007872,0.002562,0.016056
95.260482,-0.003917,0.001923,0.001115
95.290476,0.012108,0.000269,0.005407
95.320469,0.005918,-0.005192,0.010777
95.360461,0.011641,-0.016501,0.001850
95.390454,0.012814,-0.009290,0.009797
95.420448,0.012850,-0.000487,0.006063
95.460439,0.012060,-0.001437,0.005983
95.490433,0.011656,-0.006791,0.008001
95.520426,0.011343,0.002417,0.008844
95.560418,0.006013,0.004170,0.019226
95.590411,0.005094,0.015696,0.013014
95.620405,0.003595,0.023151,0.021400
95.660397,0.007254,0.025966,0.017043
95.690391,0.016855,0.007681,0.015132
95.720384,0.005744,-0.000585,0.007673
95.760376,0.011325,0.003738,0.019228
95.790369,0.004873,0.010679,0.022451
95.820363,0.011974,0.004593,0.005186
95.860354,0.020078,-0.002352,0.004638
95.890348,0.004885,0.006488,0.016563
95.920341,-0.002708,0.015729,0.018634
95.960333,0.008981,0.014480,0.008670
95.990326,-0.000255,0.016850,-0.001736
96.020320,-0.001611,0.020003,-0.008981
96.060311,0.012392,0.013705,-0.004615
96.090305,0.004280,0.006971,-0.012314
96.120298,0.013396,-0.005950,-0.008574
96.160290,0.017101,-0.012332,0.007455
96.190283,0.006685,-0.008767,0.003642
96.220277,0.001905,0.005961,0.001354
96.260268,0.013930,0.014334,0.006786
96.290262,0.008618,0.005837,-0.001628
96.320255,0.022363,-0.002562,0.003103
96.360247,0.030250,-0.006768,0.005520
96.390240,0.031364,-0.029781,0.013186
96.420234,0.011017,-0.039277,0.009799
96.460225,0.002394,0.010425,0.022561
96.490219,-0.001649,0.036759,0.018018
96.520212,-0.021329,0.032936,0.017155
96.560204,0.013725,0.028330,0.000823
96.590197,-0.000980,0.019092,0.004260
96.620191,0.016312,0.007137,0.002515
96.660185,0.007548,-0.002463,0.009583
96.690179,0.025791,-0.000388,0.002079
96.720172,0.017971,-0.019192,0.008212
96.760164,0.013440,-0.025701,0.006754
96.790157,0.015773,-0.020381,0.014564
96.820151,0.012543,-0.008595,0.023909
96.860142,0.004797,-0.004416,0.013885
96.890136,0.008125,0.000011,0.010274
96.920129,0.005661,0.015144,0.011297
96.960121,0.003305,0.017986,0.010024
96.992614,0.004698,0.004430,0.012087
97.022608,0.008587,-0.015300,0.007386
97.062599,0.007575,-0.013941,0.011519
97.092593,0.015429,-0.018029,0.008375
97.122586,0.009588,-0.010842,-0.001773
97.162578,0.015676,0.007226,0.000805
97.192571,0.012636,0.012577,0.004088
97.222565,0.008133,-0.001220,-0.003655
97.262556,-0.001175,-0.009190,-0.000109
97.292550,0.008296,0.010665,0.005333
97.322543,0.010878,-0.007677,0.011695
97.362535,0.008390,-0.020628,0.001875
97.392528,0.008476,-0.008852,0.013267
97.422522,0.016124,0.000857,0.016606
97.462513,0.003108,0.002694,0.004922
97.492507,0.009510,0.006213,0.004785
97.522499,0.005147,0.013511,0.002848
97.552492,0.021326,0.018013,0.003179
97.582486,0.025510,0.008056,0.010555
97.622477,0.018350,-0.036320,-0.002692
97.652468,0.003269,-0.039049,0.002691
97.682461,0.018662,0.005266,0.016616
97.722453,-0.010672,0.035570,0.016021
97.752446,-0.007044,0.033840,0.006749
97.782440,0.003148,0.013994,0.011848
97.822431,0.001393,-0.003817,0.000827
97.852425,0.020621,-0.011718,-0.000338
97.882418,0.011738,-0.007497,0.007953
97.922410,0.000572,0.000972,0.009304
97.952403,0.006776,0.005329,0.017821
97.982397,0.005349,0.001105,0.011814
98.022388,0.003011,-0.006025,0.010597
98.052382,0.010549,0.006627,0.007924
98.082375,0.019259,-0.009603,0.009053
98.122367,-0.002747,-0.003848,-0.005546
98.152360,0.006409,0.006184,0.012859
98.182354,0.002936,0.004300,0.014248
98.222345,-0.002377,0.000295,0.002233
98.252339,0.005357,0.003097,0.001659
98.282332,0.011094,0.002078,0.000650
98.322324,0.001784,-0.006156,0.006871
98.352317,0.001576,-0.006468,0.006282
98.382311,0.010340,-0.002706,0.007479
98.422302,0.012846,-0.010227,0.004500
98.452296,0.006431,-0.017986,0.000431
98.482289,0.005937,-0.012560,0.012324
98.522281,0.005949,-0.003143,0.015350
98.552274,0.004216,-0.001822,0.007956
98.582268,0.009477,-0.010642,0.001465
98.622259,0.011562,-0.014713,-0.003164
98.652252,0.008063,-0.015001,0.002592
98.682245,0.015241,-0.006369,0.008911
98.722237,0.008844,-0.001045,0.004100
98.752230,-0.001805,-0.006599,0.008960
98.782224,0.006387,0.004239,0.012451
98.822215,0.009968,-0.013018,0.008262
98.852209,0.004873,-0.014064,-0.007735
98.882202,0.007964,-0.001095,0.007209
98.922194,0.004075,0.018888,0.016799
98.952187,-0.004790,0.020195,0.020040
98.982181,0.007145,0.023911,0.027657
99.022172,0.006006,0.029202,0.016861
99.052166,0.009584,0.017082,0.013558
99.082159,0.003427,0.012714,0.008363
99.122151,0.011268,0.009511,0.009086
99.152144,0.017912,0.004185,0.014762
99.182138,0.013484,0.004053,0.018195
99.222129,0.005404,0.016183,0.022759
99.252123,0.001739,0.022177,0.024295
99.282116,0.011376,0.016468,0.015385
99.322108,0.007820,0.004417,-0.002717
99.352101,0.005181,-0.002173,-0.007430
99.382095,0.017082,0.000390,-0.001460
99.422086,0.013259,-0.000130,0.008829
99.452080,0.011413,-0.004450,0.003936
99.482073,0.001303,-0.015497,0.026009
99.522065,0.011378,-0.002991,0.008257
99.552058,0.008232,-0.002211,-0.000506
99.582052,0.009156,-0.005281,0.000165
99.622043,0.013563,0.007337,0.006836
99.652037,0.013199,0.017533,0.004309
99.682034,0.007420,0.018229,0.000848
99.722026,0.011161,0.017514,-0.002272
99.752019,0.018286,0.005736,0.003283
99.782013,0.011949,0.001413,-0.000791
99.822004,0.024110,-0.010279,-0.005930
99.851998,0.020195,-0.004626,-0.001586
99.881991,0.022718,-0.000086,0.006619
99.921983,0.011237,0.000111,0.009892
99.951976,0.010460,0.003377,0.015532
99.981970,0.007019,0.004777,0.020123
100.021961,0.005798,0.000275,0.007466
100.051955,0.000301,-0.002012,-0.001682
100.081948,0.008600,-0.001159,-0.005066
100.121940,0.024684,-0.027561,0.006815
100.151933,0.000729,-0.027245,0.001909
100.181927,0.012882,-0.014548,0.016519
100.221918,0.001831,0.008957,0.023334
100.251912,0.007646,-0.004674,0.013817
100.281905,0.013622,-0.016508,0.005734
100.321897,0.008766,-0.008000,0.003031
100.351890,0.006022,0.006494,0.007062
100.381884,0.004601,0.006111,0.008578
100.421875,-0.006758,0.005751,0.006106
100.451869,0.000826,0.008929,0.014339
100.481862,0.013118,-0.003462,0.020316
100.521854,0.003135,-0.012764,0.012103
100.551847,0.001342,-0.004558,0.004895
100.581841,0.000120,0.020292,0.008175
100.621832,0.002230,0.021719,0.010851
100.651826,-0.003095,0.003277,0.009641
100.681821,0.000895,0.005372,0.009388
100.721813,0.011694,0.000297,0.016528
100.751806,0.008388,-0.011837,0.008269
100.781800,0.011908,-0.007166,0.006653
100.821791,0.022296,0.005332,0.016569
100.851785,0.008780,-0.004680,0.014671
100.881778,0.006333,-0.010670,0.001248
100.921770,0.008678,0.008547,0.018112
100.951763,0.006192,0.010808,0.016114
100.994256,0.012068,-0.016872,0.009491
101.024249,0.003864,-0.010662,0.005437
101.054243,0.005244,-0.004836,0.017248
101.094234,-0.005204,-0.002358,0.006088
101.124228,0.013010,-0.007025,0.007840
101.154221,0.012743,-0.007994,0.007805
101.194213,0.004899,0.006320,0.005416
101.224206,0.005706,0.009730,0.003858
101.254200,-0.005655,0.011433,-0.003263
101.294191,0.005340,0.004848,-0.000713
101.324185,0.016097,-0.002143,0.009674
101.354178,0.008454,-0.007029,0.008215
101.394170,0.000003,-0.003159,0.013802
101.424163,0.001124,0.004798,0.014383
101.454157,0.007759,0.008251,0.010287
101.494148,-0.002474,0.012128,0.008094
101.514142,-0.010082,0.020322,0.011657
101.554133,0.023001,0.023938,0.030862
101.584127,0.004399,0.000059,0.016994
101.614120,0.004352,-0.013792,0.001228
101.654107,-0.008121,-0.002683,0.019870
101.684100,0.015967,0.021377,0.011953
101.714094,0.010783,-0.014108,0.013182
101.754085,0.009018,-0.022891,-0.007609
101.784079,0.007205,-0.014722,0.010718
101.814072,0.007596,0.000023,0.018212
101.854064,-0.000246,0.001605,0.014350
101.884057,0.005159,0.000224,0.013032
101.914051,0.000232,0.005968,0.013729
101.954042,-0.000862,0.009344,0.010619
101.984036,0.002978,0.007339,0.003095
102.014029,0.012872,0.005555,0.012041
102.054021,0.011431,0.010390,0.006412
102.084014,0.003392,0.007148,0.006399
102.114008,0.009275,0.020073,0.008455
102.153999,0.016588,0.016090,0.013998
102.183993,0.010657,-0.001003,0.008701
102.213986,0.016161,-0.004892,0.007009
102.253977,0.017144,0.005160,0.006915
102.283971,0.014566,0.013730,0.001253
102.313965,0.013501,0.015619,0.009471
102.353956,0.008709,0.007172,0.003016
102.383949,0.008730,0.001296,0.014748
102.413943,0.024107,-0.002736,0.006306
102.453934,0.013133,-0.015940,0.008046
102.483928,0.009581,0.000935,0.006774
102.513921,0.002145,0.016218,0.012562
102.553913,0.009805,0.012375,0.003373
102.583906,-0.005918,-0.001065,0.005863
102.613900,0.006036,-0.002636,0.005853
102.653891,0.012417,-0.000584,0.014848
102.683885,-0.007543,0.009922,0.010041
102.713878,0.007262,0.015652,-0.001034
102.753870,0.016082,0.018296,0.004160
102.783863,0.006330,0.002843,-0.003680
102.813857,0.015386,-0.006889,0.006435
102.853848,0.015854,-0.003725,0.020630
102.883842,0.006034,-0.000164,0.022742
102.913835,0.006883,0.007207,0.021624
102.953826,0.015557,0.008916,0.002023
102.983820,-0.000492,0.006684,-0.008737
103.013813,0.016904,0.001280,0.004669
103.053805,0.004659,-0.001025,0.007709
103.083798,-0.000082,-0.019888,0.011817
103.113792,0.007106,-0.015231,0.012622
103.153783,0.015591,-0.028132,0.003289
103.183777,0.009561,-0.028655,-0.007921
103.213770,0.001380,-0.011918,0.002643
103.253762,-0.004079,0.022368,0.010476
103.283755,0.005203,0.014566,0.013312
103.313749,0.008584,-0.002424,0.001436
103.353740,0.003551,-0.009592,-0.006682
103.383734,0.015997,-0.003663,0.000951
103.413727,0.009370,-0.010901,0.003145
103.453719,0.011851,-0.010638,0.002732
103.483712,0.001286,0.007210,0.010286
103.513706,0.007771,0.017895,0.020299
103.553697,0.001733,-0.003611,0.011703
103.583690,0.005567,-0.010276,0.004587
103.613684,0.010306,-0.003958,0.012702
103.653675,0.009840,0.002908,0.007431
103.683668,0.001454,-0.002738,0.004048
103.713661,0.003636,0.005473,0.000898
103.753653,0.011289,0.003003,0.017159
103.783646,0.007682,-0.009067,0.014248
103.813640,0.012942,-0.013671,0.017110
103.853631,0.008483,0.004391,0.003424
103.883625,0.010997,0.000212,0.005514
103.913618,0.017648,-0.007724,0.000163
103.953610,0.006989,-0.020799,0.013040
103.983603,0.000946,-0.008878,0.018454
104.013597,0.007864,0.010933,0.019809
104.053588,-0.001208,0.010849,0.009473
104.083581,-0.003538,0.002685,-0.004726
104.113575,0.007786,0.009915,-0.003447
104.153566,0.010440,-0.005315,-0.000162
104.183560,0.012295,-0.018291,-0.004878
104.213553,0.012240,-0.006312,0.004754
104.253545,0.001433,0.011785,0.007204
104.283538,-0.000291,0.018362,0.003529
104.313532,0.005724,0.022977,0.009843
104.353523,0.008555,-0.004139,0.003945
104.383517,0.011435,-0.021901,0.000815
104.413510,0.019104,-0.019955,0.001688
104.453501,0.015419,-0.018832,0.006417
104.483495,0.008216,-0.012205,0.008467
104.513488,0.001661,0.001320,0.009449
104.553480,0.014467,-0.000183,0.010958
104.583473,-0.000165,-0.006985,0.018266
104.613467,0.023850,-0.010571,0.012964
104.653458,0.010236,-0.031216,0.002575
104.683453,0.018535,-0.012410,0.001529
104.713446,0.004462,0.005176,0.011093
104.753438,-0.001550,0.011322,0.004055
104.783431,0.004709,0.005927,0.008048
104.813425,0.008820,-0.007413,0.004406
104.853416,0.015120,-0.007592,0.005903
104.883409,0.011127,-0.004332,0.014760
104.913403,0.003794,0.001740,-0.002083
104.953394,0.006130,0.007265,-0.003845
104.995887,0.004431,0.001327,-0.000637
105.025881,0.008719,0.004432,0.009472
105.055874,0.005311,0.000092,0.016447
105.095865,0.005232,-0.008057,0.014283
105.125859,0.002950,-0.001281,0.005647
105.155852,0.014730,-0.003474,0.000275
105.195844,0.008207,0.003680,-0.001466
105.225837,0.007632,0.006169,0.003799
105.255831,0.007693,0.002750,0.012260
105.295822,0.004844,-0.001688,0.006958
105.325816,0.007376,-0.005165,0.014109
105.355809,0.012752,0.008242,0.019469
105.395800,0.009096,0.003605,0.015701
