time_tick,acc_X_value,acc_Y_value,acc_Z_value
0.002907,0.254543,-5.460321,-8.226771
0.035153,0.165505,-5.388044,-8.069945
0.068451,0.155778,-5.384752,-7.955019
0.101810,0.226260,-5.391486,-7.928383
0.135148,0.297191,-5.396424,-8.039118
0.168462,0.441596,-5.456580,-8.311618
0.201839,0.302728,-5.449846,-8.242184
0.235178,0.243619,-5.391486,-8.155092
0.268480,0.262923,-5.364999,-8.233804
0.301837,0.219077,-5.354075,-8.157486
0.335170,0.189149,-5.225681,-8.274656
0.368484,0.188101,-5.104919,-8.299796
0.401838,0.281628,-4.896168,-8.446895
0.435158,0.301381,-4.825985,-8.604320
0.468480,0.329364,-4.903799,-8.587111
0.501841,0.845333,-5.668475,-8.313564
0.535153,1.213006,-6.485076,-7.992280
0.568478,1.771623,-6.217216,-8.081018
0.601842,1.857368,-5.220294,-7.894713
0.635229,1.940270,-5.539333,-6.867414
0.668619,1.937876,-6.486722,-7.010473
0.701843,1.478323,-7.145600,-7.457606
0.735153,1.248920,-6.945528,-7.205009
0.768516,1.105861,-6.609729,-6.887616
0.801857,1.238595,-6.321517,-6.995060
0.835171,0.853713,-6.486124,-6.564238
0.868588,0.239129,-6.477744,-6.002328
0.901833,-0.277139,-6.256422,-6.231731
0.935181,-0.067639,-6.200156,-6.901084
0.968548,0.473770,-6.064879,-7.775298
1.001853,1.057676,-6.095257,-7.872566
1.035183,1.142225,-6.736327,-8.081168
1.068595,1.173949,-7.705864,-6.945827
1.101844,0.971482,-6.934753,-9.805354
1.135223,0.566548,-6.281562,-9.681749
1.168548,1.218692,-6.254776,-9.833337
1.201846,1.278699,-5.778911,-9.539289
1.235207,1.058425,-5.643036,-8.944758
1.268573,0.521206,-5.439671,-8.314611
1.301833,-0.150092,-5.003611,-8.266725
1.335218,-0.155479,-5.199045,-8.436420
1.368549,0.465689,-5.234959,-8.287675
1.401850,0.261426,-5.158791,-6.930414
1.435216,0.177177,-5.077984,-6.657016
1.468547,0.364680,-5.500575,-6.782716
1.501869,0.280431,-6.567081,-6.465174
1.535226,0.259481,-6.550321,-6.605539
1.568565,0.250353,-6.168881,-6.987128
1.601850,0.367224,-6.480737,-6.756678
1.635185,0.768865,-6.727498,-6.769847
1.668488,1.033883,-6.727947,-6.663002
1.701851,1.596391,-7.126296,-7.068385
1.735163,1.763243,-7.682370,-7.111033
1.768594,1.158985,-8.478470,-7.437703
1.801861,1.903159,-7.465986,-8.028793
1.835228,2.485420,-5.929003,-9.920878
1.868481,2.026315,-5.365597,-8.618835
1.901888,0.412566,-5.705586,-6.482084
1.935185,0.002095,-5.357517,-7.030076
1.968557,0.398948,-4.805634,-7.973724
2.001834,0.494720,-5.188720,-6.725403
2.035185,0.179272,-5.774721,-5.897877
2.068604,0.102056,-6.404568,-6.216318
2.101902,-0.184510,-7.147546,-6.630529
2.135164,-0.632391,-7.240025,-6.648187
2.168625,-0.443691,-7.159966,-7.071078
2.201542,-0.635384,-8.249067,-8.846741
2.235150,-0.284322,-9.107719,-7.182113
2.268567,-1.086408,-8.344240,-9.457285
2.301827,0.177327,-5.569561,-10.325513
2.335153,-0.301531,-4.754456,-8.457221
2.368555,-0.986746,-6.018190,-6.214073
2.401829,-1.917974,-6.606586,-5.947260
2.435180,-1.564218,-5.860018,-5.705287
2.468488,-0.092928,-5.498780,-6.342916
2.501832,0.439651,-5.905360,-5.927357
2.535152,0.170294,-6.238465,-5.869595
2.568541,-0.851917,-7.109836,-6.291738
2.601832,-1.251464,-7.555622,-6.021632
2.635154,-0.842939,-7.542902,-6.386312
2.668501,0.057014,-7.280878,-7.869423
2.701827,0.923596,-7.451620,-8.866943
2.735164,1.242934,-8.192652,-8.197740
2.768480,0.423490,-9.329490,-6.073558
2.801832,2.004168,-7.824979,-8.553441
2.835172,2.370045,-5.900571,-10.721019
2.868503,0.933922,-5.324146,-6.884024
2.901830,-0.350913,-6.059043,-4.759544
2.935153,-0.284322,-6.449312,-5.121979
2.968486,0.158173,-6.164691,-6.227092
3.001841,0.188849,-6.564686,-5.415129
3.035357,0.370666,-7.248255,-5.091452
3.068532,0.539762,-7.761231,-5.608917
3.101832,0.105648,-7.906684,-5.792678
3.135174,-0.549489,-7.998715,-5.617297
3.168546,-1.002458,-8.223628,-5.348239
3.201840,-0.878853,-8.414273,-6.011905
3.235227,-0.790713,-8.526206,-7.043694
3.268499,-0.981508,-9.380218,-6.614966
3.301836,-1.298452,-9.970560,-6.736327
3.335227,-1.170657,-9.137198,-7.685662
3.368551,-0.348219,-5.735515,-8.995935
3.401880,-0.061503,-5.742847,-6.840029
3.435178,-0.462995,-6.766704,-5.877227
3.468527,-0.935268,-6.595214,-5.484414
3.501847,-0.336996,-6.542090,-5.201140
3.535231,0.469729,-6.631726,-4.957671
3.568527,0.696588,-6.460385,-4.796356
3.601909,0.480803,-6.875046,-5.304543
3.635372,-0.042199,-7.428426,-5.523920
3.668657,-0.372761,-7.721726,-5.672964
3.701847,-0.084997,-7.528986,-6.114560
3.735331,0.281329,-7.465387,-7.013316
3.768515,0.781585,-8.376563,-8.055280
3.801848,0.072278,-9.285195,-6.512461
3.835194,-0.021848,-9.841119,-5.568513
3.868515,2.384411,-7.914915,-9.936741
3.901847,1.916477,-6.281562,-10.069624
3.935160,0.332207,-6.471309,-6.198510
3.968542,-0.626705,-7.187051,-4.389776
4.001904,-0.013767,-6.930563,-5.443412
4.035163,-0.063898,-6.789899,-5.126019
4.068018,-0.287763,-6.868611,-3.763370
4.101805,-0.094574,-7.296590,-3.608490
4.135167,-0.008530,-8.593246,-4.677090
4.168519,-0.756595,-8.833872,-5.361108
4.201826,-1.003206,-8.518125,-5.779660
4.235196,-1.241887,-8.525757,-7.471223
4.268489,-1.729573,-9.618001,-6.668539
4.301797,-2.807302,-9.841568,-7.106693
4.335167,-1.163624,-7.472121,-9.767644
4.368494,-0.069285,-5.372481,-11.141366
4.401850,-0.214289,-5.596197,-7.769462
4.435196,-1.444354,-6.868761,-5.190665
4.468489,-1.205973,-6.734681,-5.311277
4.501892,-0.246462,-6.559150,-5.868099
4.535160,0.241973,-6.498245,-4.913077
4.568486,0.151289,-6.616762,-4.603765
4.601885,-0.489931,-7.002093,-4.936122
4.634914,-0.996472,-7.226856,-5.215506
4.668120,-0.962653,-7.287312,-5.702743
4.701429,-0.584056,-7.073622,-6.017293
4.735160,-0.104750,-7.062997,-6.550770
4.767930,0.350464,-7.309459,-6.708344
4.801837,1.299050,-8.734210,-7.063147
4.835154,0.478857,-10.289000,-6.791994
4.868491,0.826029,-10.903883,-6.309994
4.901823,1.989503,-7.394906,-9.193763
4.935149,1.356214,-5.827545,-7.863886
4.968489,-0.029779,-6.333638,-4.687116
5.001814,-1.008294,-7.103850,-2.634165
5.034831,-0.186605,-6.966777,-4.260484
5.068466,0.601116,-6.787654,-5.697206
5.101812,0.690004,-7.283122,-5.398220
5.135170,0.397751,-7.790711,-5.387595
5.168485,-0.052674,-8.163771,-6.269591
5.201914,-0.966843,-7.979411,-6.621401
5.235176,-1.262238,-7.659025,-6.191776
5.268492,-0.946941,-8.135638,-6.654622
5.301893,-0.983005,-8.865896,-6.928468
5.335185,-0.776497,-9.591814,-5.927806
5.368485,-1.306383,-10.517804,-6.857987
5.401820,-0.606054,-8.296504,-8.958674
5.435158,-0.590790,-5.155050,-9.545574
5.468509,-1.079824,-5.169266,-6.639059
5.501830,-1.992496,-6.811897,-4.940163
5.535214,-1.729872,-7.130187,-5.171062
5.568548,-0.561909,-6.734531,-5.720850
5.601815,0.428128,-6.348003,-5.579587
5.635216,0.504297,-6.483131,-5.608468
5.668490,-0.113280,-6.900036,-5.832932
5.701921,-0.838449,-7.108190,-5.954293
5.735246,-0.933323,-7.024988,-6.091665
5.768542,-0.638377,-6.875495,-6.449012
5.801836,0.213840,-7.165952,-7.398048
5.835187,0.664115,-7.471972,-7.479154
5.868493,0.840993,-8.452432,-7.096368
5.901827,0.304523,-9.953650,-6.476098
5.935184,1.016225,-9.488560,-7.544399
5.968487,1.678844,-6.621102,-10.410809
6.001862,0.971332,-5.769035,-7.122406
6.035133,-0.067339,-7.162809,-4.294603
6.068489,0.077066,-7.715590,-3.942792
6.101818,0.736543,-7.307514,-5.565221
6.135011,0.940805,-7.141710,-5.539333
6.168474,0.601116,-6.991318,-5.205330
6.201813,0.215635,-7.238678,-5.409443
6.235211,-0.083650,-7.549487,-5.890994
6.268482,-0.519411,-7.646006,-6.016694
6.301813,-0.643315,-7.981207,-5.866452
6.335219,-0.300932,-8.319849,-6.438088
6.368525,0.117769,-8.444651,-6.820726
6.401901,-0.689106,-9.436185,-7.078111
6.435239,-1.107507,-10.233632,-6.202551
6.468515,-1.573496,-9.416582,-7.477658
6.501710,-0.388623,-5.318610,-8.743039
6.535162,-0.266813,-5.175701,-6.665695
6.568492,-0.890376,-6.696223,-5.340607
6.601435,-1.206272,-7.189446,-5.238551
6.634886,-0.095921,-6.703705,-6.346208
6.668497,0.922249,-6.541941,-7.027233
6.701822,0.994377,-6.438837,-6.536853
6.735153,0.456411,-6.833744,-5.996193
6.768494,-0.212942,-7.106843,-5.696308
6.801803,-0.406879,-7.119114,-5.832334
6.835158,-0.238830,-6.811747,-6.246097
6.868499,0.031724,-6.828357,-6.540145
6.901804,0.275044,-7.403435,-6.289194
6.935239,0.970435,-7.732201,-6.574413
6.968480,1.458570,-8.413974,-7.186004
7.001825,0.773953,-9.519087,-6.472656
7.035162,0.603360,-9.811639,-5.772028
7.068477,1.923959,-7.217130,-8.635146
7.101913,1.186519,-5.182734,-8.305333
7.134823,0.221472,-6.030311,-5.843258
7.168489,-0.182714,-6.388856,-5.018576
7.201820,0.980161,-7.762279,-6.358778
7.235029,1.594895,-8.375516,-6.405167
7.268471,1.261191,-7.839944,-6.297574
7.301819,0.531831,-7.508484,-6.073858
7.335178,0.124802,-7.598270,-5.628819
7.368517,-0.651096,-7.435459,-5.380263
7.401830,-0.962204,-7.317091,-5.060476
7.435236,-0.381141,-7.695837,-5.367992
7.468536,0.145453,-8.251162,-5.847298
7.501855,0.118966,-8.958674,-6.723009
7.535190,-0.300483,-9.735920,-6.240261
7.568495,-0.592586,-10.102994,-6.657166
7.601854,0.092629,-8.044356,-8.100472
7.634723,0.353008,-5.961176,-8.395269
7.668495,0.071679,-6.078347,-6.212726
7.701836,-0.566847,-6.567679,-5.660095
7.735183,-1.041066,-6.832547,-5.630765
7.768485,-0.311108,-6.903478,-5.604278
7.801857,0.958762,-6.568428,-6.745455
7.835189,1.021912,-6.252382,-6.551817
7.868565,0.522104,-6.531466,-6.319871
7.901840,-0.068836,-7.248106,-6.164092
7.935233,-0.032323,-7.403585,-6.031958
7.968506,0.151139,-7.224462,-6.350847
8.001827,0.382338,-7.284918,-6.374790
8.035248,0.632391,-7.601113,-6.343514
8.068500,1.510795,-8.101519,-6.919340
8.101872,1.488199,-8.749922,-6.868162
8.135175,0.156826,-9.327993,-6.220059
8.168487,1.056928,-8.950893,-6.714479
8.201868,2.283851,-6.811448,-9.778119
8.235184,1.642331,-5.446105,-8.047798
8.268483,-0.159669,-6.435545,-4.386783
8.301824,-0.149793,-7.065841,-4.661079
8.335230,0.502501,-6.872502,-5.924963
8.368487,0.725619,-6.840778,-5.393281
8.401872,0.777545,-7.172087,-5.053143
8.435303,0.555475,-7.559662,-5.168667
8.468503,-0.092180,-7.947836,-6.006369
8.501828,-0.713198,-7.495914,-6.110670
8.535177,-0.548890,-7.535720,-6.346357
8.568518,-0.074971,-7.775298,-6.907967
8.601906,0.132434,-8.369530,-7.041748
8.635177,0.032024,-9.185982,-7.392062
8.668486,-0.358545,-10.017099,-6.969770
8.701815,-0.543952,-8.728673,-7.749859
8.735158,-0.140365,-4.959317,-8.958974
8.768492,-0.163859,-5.396873,-6.932808
8.801835,-0.819295,-6.719417,-5.859719
8.835135,-0.671149,-6.826262,-5.583927
8.868514,0.465240,-6.717322,-6.135062
8.901824,0.957565,-6.390203,-6.150026
8.935179,0.909679,-6.387509,-5.956388
8.968487,0.783381,-7.061351,-5.954293
9.001856,0.500855,-7.103401,-5.863759
9.035225,0.390568,-6.554062,-6.538349
9.068468,0.732802,-6.577855,-6.652676
9.101874,1.035230,-7.256486,-6.780023
9.135173,1.485057,-7.952924,-6.291289
9.168471,1.540574,-8.564964,-6.883276
9.201865,1.046752,-9.185533,-6.713581
9.235156,0.993629,-8.516479,-7.698381
9.268491,2.055795,-6.970668,-9.122982
9.301853,2.083030,-5.485013,-8.908544
9.335235,0.792958,-5.526613,-5.348389
9.368540,0.456261,-6.545981,-4.943155
9.401724,0.828423,-7.103401,-5.896381
9.435162,1.435525,-7.137969,-6.772241
9.468484,1.353221,-6.849457,-6.077748
9.501940,1.734811,-6.838533,-6.272883
9.535157,1.680790,-7.879150,-6.242056
9.568511,1.074436,-8.236797,-5.952796
9.601842,0.356001,-7.802832,-5.898476
9.635158,0.237633,-7.807321,-5.995594
9.668512,0.619821,-8.001259,-6.754583
9.701850,0.766022,-8.039717,-6.901832
9.735152,0.808521,-8.259243,-6.828357
9.768523,0.622066,-8.555087,-7.465238
9.801846,0.233593,-8.587111,-6.623047
9.835154,0.565351,-7.700776,-7.261125
9.868600,1.289174,-6.210781,-8.157037
9.901825,1.070995,-6.180403,-7.015860
9.935247,-0.087242,-7.147695,-5.521525
9.968489,-0.248407,-7.271600,-5.262344
10.001821,0.790713,-6.764310,-6.071164
10.035164,1.971845,-6.531017,-7.363181
10.068562,1.831181,-6.730341,-7.023342
10.101813,1.160481,-6.998801,-6.028516
10.135225,0.513575,-7.287462,-5.986616
10.168501,0.215037,-6.904077,-6.323312
10.201856,0.316794,-6.837336,-6.668389
10.235155,0.735794,-7.084696,-6.636365
10.268497,0.889777,-7.295243,-6.145836
10.301902,1.085061,-7.316193,-5.959081
10.335160,1.170657,-7.393409,-6.370450
10.368490,1.038522,-7.436357,-6.616762
10.401812,0.965796,-7.570137,-7.067038
10.435158,0.540510,-8.009639,-6.999998
10.468493,0.496216,-8.005000,-6.598655
10.501958,1.168861,-7.712448,-7.003440
10.535159,2.484073,-6.365212,-8.715953
10.568491,2.046068,-5.672216,-8.006197
10.601818,1.185471,-6.002777,-6.259564
10.635192,0.722476,-6.719417,-6.159753
10.668533,1.162875,-6.956302,-6.838084
10.701830,1.591752,-7.041449,-6.892853
10.735323,1.554790,-7.052672,-6.025074
10.768542,1.380157,-7.218476,-5.739855
10.801883,0.936316,-7.540807,-5.737909
10.835195,0.256638,-7.504594,-5.879920
10.868509,0.082304,-7.299284,-5.943519
10.901873,0.370516,-7.446981,-6.221705
10.935244,0.862093,-7.970881,-6.602995
10.968530,0.938112,-8.613149,-6.553164
11.001985,0.770362,-9.292378,-6.748448
11.035222,0.496964,-8.536831,-7.426031
11.068523,0.718885,-7.360637,-7.989587
11.101981,1.010240,-6.315531,-7.677581
11.135212,0.865984,-6.236370,-6.611225
11.168520,0.511031,-6.998052,-6.003076
11.202040,0.030677,-7.208151,-5.491447
11.235209,0.604857,-6.411153,-5.949953
11.268520,1.444354,-6.128028,-6.840628
11.301988,1.678246,-6.350398,-6.962288
11.335171,0.899504,-7.093375,-6.261061
11.368524,0.322181,-7.372609,-6.128777
11.401947,0.041750,-7.238379,-6.660308
11.435154,-0.091581,-6.817583,-7.061351
11.468564,0.168199,-6.663750,-6.990121
11.501986,0.438753,-6.974858,-6.783315
11.535175,0.637329,-7.675486,-6.062335
11.568606,0.596477,-7.810614,-6.322265
11.601940,0.438753,-7.553826,-7.040701
11.635063,0.266215,-7.204709,-7.587945
11.668691,0.176579,-7.598270,-7.312452
11.701861,0.257236,-8.020263,-6.790947
11.735290,1.608362,-8.413974,-6.985333
11.768608,3.021590,-7.515518,-8.525907
11.801833,2.727841,-6.148080,-8.530396
11.835287,1.217645,-6.179655,-5.139936
11.868584,0.702424,-6.322714,-4.615587
11.901934,1.167065,-6.418186,-6.555558
11.935250,1.230514,-7.217579,-6.639508
11.968606,0.968788,-6.998202,-5.987963
12.002004,0.650947,-6.735429,-5.842659
12.035433,0.296742,-6.888813,-6.540594
12.068582,-0.377250,-7.152634,-6.285752
12.101936,-0.460152,-7.380839,-5.977936
12.135315,0.181068,-7.530332,-6.827459
12.168568,0.868528,-7.815103,-7.552629
12.201909,0.628800,-8.395568,-7.322478
12.235449,0.331010,-9.480779,-6.182049
12.268561,-0.248557,-9.212319,-7.454314
12.301594,0.022446,-7.034715,-8.192203
12.335259,0.509983,-5.089506,-8.200433
12.368554,-0.217880,-5.757812,-5.999784
12.401913,-0.869874,-6.623197,-5.728781
12.435233,-1.342597,-6.774336,-5.992452
12.468544,-0.335200,-6.173669,-6.537302
12.501898,0.604258,-6.681258,-6.529221
12.535195,1.223181,-6.930264,-6.349350
12.568581,1.018620,-6.982789,-6.387360
12.601869,0.556672,-7.304970,-6.519794
12.635208,0.422143,-7.657230,-6.536254
12.668544,0.573282,-7.167598,-6.947473
12.701833,0.604408,-6.668988,-7.203662
12.735234,0.868977,-6.556007,-7.182861
12.768506,0.987793,-7.362732,-7.001345
12.801895,1.126961,-8.357110,-6.261211
12.835238,1.048249,-9.434539,-6.418036
12.868556,2.156953,-7.664712,-8.691113
12.901914,1.907199,-6.534309,-9.459380
12.935306,0.259930,-6.505129,-5.573601
12.968573,-0.339989,-6.578454,-4.990592
13.001889,-0.076916,-6.351146,-6.484777
13.035243,0.596776,-6.455447,-6.493007
13.068590,1.004553,-6.762365,-6.400528
13.101884,0.878703,-6.986081,-6.156760
13.135243,0.513275,-7.688804,-5.894885
13.168559,0.086494,-7.657828,-5.852985
13.201708,-0.240925,-7.485439,-5.817220
13.235263,-0.207555,-7.587197,-5.937682
13.268561,0.079909,-7.830217,-6.054404
13.301912,0.351212,-7.907283,-6.628135
13.335201,-0.179721,-8.761744,-6.756529
13.368564,-0.728911,-9.428404,-6.150924
13.401878,-0.911625,-9.361064,-7.708407
13.435197,0.090983,-6.644147,-9.150367
13.468542,-0.084848,-5.350184,-7.258132
13.501842,-0.329963,-6.317776,-5.098485
13.535257,-0.890675,-7.371262,-5.312923
13.568571,-0.482449,-6.777628,-5.577043
13.601909,0.306169,-6.455447,-6.118152
13.635213,0.663666,-6.077898,-5.837122
13.668501,0.314549,-6.279317,-5.759308
13.701612,-0.089337,-6.805612,-6.463229
13.735197,-0.477960,-7.510430,-6.370450
13.768580,-0.261576,-7.442193,-6.568128
13.801888,0.287015,-7.010024,-7.114774
13.835164,0.751208,-6.738871,-7.023192
13.868559,0.994228,-7.604406,-6.681857
13.901885,1.124866,-8.801699,-6.255823
13.935184,0.417953,-9.509809,-6.823569
13.968543,1.426097,-8.483408,-8.528152
14.001902,2.526422,-7.622512,-10.027275
14.035195,1.498524,-6.075504,-7.478406
14.068629,0.627004,-6.178608,-5.453588
14.101880,0.259182,-6.675572,-5.026656
14.135182,0.933473,-6.424920,-5.923317
14.168501,1.162875,-6.352044,-5.963571
14.201575,1.010539,-6.595214,-5.280301
14.235169,0.899055,-7.253493,-5.388643
14.268530,0.589743,-7.512226,-6.422675
14.301939,0.126598,-7.608596,-6.775833
14.335206,-0.458955,-7.658876,-6.232778
14.368500,0.013468,-7.744920,-6.584140
14.401897,0.231947,-7.972527,-7.324424
14.435251,-0.946043,-9.430947,-6.284106
14.468517,-1.015926,-10.277029,-7.831115
14.501869,-0.052076,-9.009403,-9.616654
14.535209,0.821091,-4.849778,-10.508975
14.568502,0.472423,-5.593803,-6.566482
14.601832,-0.406580,-6.834493,-4.654195
14.635176,-0.318739,-6.661655,-5.062271
14.668495,0.476463,-6.296526,-5.623133
14.701841,0.804331,-6.236819,-5.202337
14.734766,0.745970,-6.348752,-5.194406
14.768556,0.363333,-6.770894,-5.513145
14.801255,-0.135876,-7.203811,-5.779510
14.835181,-0.264718,-7.025287,-6.143292
14.868557,0.025290,-6.874896,-6.361771
14.901667,0.418402,-7.035014,-6.572618
14.935139,1.222284,-7.509831,-7.108938
14.968546,1.913335,-8.377162,-7.996769
15.001846,1.608811,-9.322307,-6.929067
15.035153,0.573132,-10.367114,-5.326690
15.068494,1.930843,-7.890523,-8.409634
15.101869,1.790328,-5.297809,-9.425860
15.135172,0.480952,-5.529157,-5.427101
15.168514,0.039506,-7.138717,-4.640877
15.201820,0.508636,-7.574327,-6.238016
15.235158,1.322993,-6.818032,-6.772690
15.268560,1.157189,-6.600152,-6.228738
15.301855,0.761832,-6.942834,-5.324146
15.335199,0.366925,-7.390865,-5.548910
15.368499,-0.183313,-7.465836,-5.900122
15.401716,-0.647206,-7.492173,-5.721299
15.435191,-0.408376,-7.647054,-6.004274
15.468503,0.038608,-7.725616,-6.944331
15.501804,0.238980,-8.359504,-7.764973
15.535166,0.060605,-10.142649,-6.944630
15.568488,-0.040104,-10.420985,-7.902644
15.601861,0.740583,-7.938708,-9.267687
15.635171,-0.001197,-5.328785,-7.193636
15.668476,-0.428428,-6.100344,-5.280750
15.701830,-0.879452,-6.847362,-5.604428
15.735280,-0.456561,-6.561544,-6.010858
15.768534,0.497413,-6.135361,-6.269441
15.801848,0.958613,-5.752574,-6.033903
15.835183,0.782483,-5.848495,-5.847597
15.868518,0.359442,-6.807407,-5.911196
15.901704,0.182864,-7.409720,-5.860018
15.935165,0.127795,-7.172386,-6.399780
15.968578,0.380692,-7.093674,-6.779274
16.001815,0.778742,-7.079907,-7.250500
16.035204,1.340202,-7.994824,-7.622662
16.068581,1.210611,-9.895888,-6.375538
16.101849,1.538629,-10.243359,-6.797531
16.135201,2.211573,-7.150688,-9.847553
16.168498,0.905041,-5.445058,-7.844882
16.201844,-0.004639,-6.495402,-5.337465
16.235394,-0.390867,-7.005535,-5.155798
16.268519,0.339390,-6.872352,-6.347255
16.301899,0.839647,-6.844070,-5.843407
16.335196,1.019667,-6.903927,-5.624779
16.368549,0.758390,-7.177474,-5.511050
16.401648,0.358694,-7.586598,-5.446554
16.435188,-0.121660,-7.608147,-5.383405
16.468535,-0.456261,-7.770659,-5.363951
16.501883,-0.109090,-7.877504,-6.300866
16.535177,0.333853,-7.895012,-7.034416
16.568483,0.222818,-8.382250,-7.262920
16.601980,-0.030826,-9.555450,-6.467269
16.635281,-0.403138,-9.873142,-7.997069
16.668485,0.012869,-7.723521,-8.965408
16.701851,-0.531831,-5.524219,-7.635980
16.735213,-1.010090,-6.162147,-5.122877
16.768492,-1.068301,-6.632175,-5.372331
16.801874,-0.612189,-6.382721,-5.706783
16.835176,0.265766,-6.410704,-5.399716
16.868488,0.844435,-6.401725,-5.299306
16.901815,0.849673,-6.670634,-5.416925
16.935192,0.375454,-7.367072,-6.365811
16.968489,0.049831,-7.767068,-6.651330
17.001905,0.237034,-7.536617,-6.895547
17.035180,0.477361,-6.824916,-7.208600
17.068582,0.841592,-6.756978,-7.761680
17.101868,1.123669,-8.283934,-7.990634
17.135184,1.440463,-9.232521,-6.799327
17.168573,1.548954,-9.883767,-5.757363
17.201843,2.227286,-7.386525,-8.721191
17.235170,1.498824,-5.921072,-7.923744
17.268481,0.202168,-5.949953,-5.436379
17.301867,-0.067788,-6.739469,-5.245733
17.335236,0.438753,-6.568128,-6.505428
17.368500,0.733699,-6.642201,-6.027019
17.401897,0.728312,-6.837635,-5.662788
17.435226,0.650797,-7.152783,-5.690622
17.468471,0.447582,-7.782780,-5.855977
17.501927,-0.288661,-7.610691,-6.233078
17.535235,-0.681923,-7.015710,-6.444822
17.568354,-0.455962,-7.234937,-7.271899
17.601815,-0.646308,-8.043907,-7.708707
17.635181,-0.322780,-8.982468,-6.171874
17.668489,-0.298687,-10.258174,-7.856853
17.701867,0.330112,-7.989587,-9.371689
17.735177,-0.142909,-5.919875,-8.534287
17.768490,-0.855509,-6.239961,-6.115608
17.801886,-1.682436,-6.777778,-5.950252
17.835181,-1.255205,-6.472207,-6.681857
17.868488,-0.470328,-5.717109,-6.946276
17.901882,0.062850,-5.639145,-5.517186
17.935197,0.276690,-5.950103,-5.327738
17.968482,0.015114,-6.409806,-5.580634
18.001826,-0.426333,-7.193636,-5.955490
18.035234,-0.213391,-7.209498,-6.475948
18.068300,0.320834,-7.024240,-7.232244
18.101869,0.830369,-6.636515,-7.488582
18.135172,1.047201,-7.141859,-7.225510
18.168485,1.333618,-8.593994,-6.104085
18.201856,1.301445,-10.361427,-6.470561
18.235047,2.116550,-8.250414,-8.875473
18.268493,1.572149,-6.016544,-9.587175
18.301991,0.153683,-6.474302,-6.014150
18.335177,-0.144555,-6.941188,-5.385650
18.368486,0.420048,-6.807856,-6.554810
18.401904,0.690303,-6.565135,-6.333039
18.435197,0.811214,-6.772690,-5.665632
18.468501,0.806725,-7.109087,-5.651565
18.501827,0.460302,-7.499207,-5.972400
18.535189,-0.135128,-7.418399,-5.739855
18.568238,-0.618325,-7.246909,-5.810935
18.601821,-0.470627,-7.463292,-6.103936
18.635242,-0.224165,-7.774999,-6.584140
18.668487,-1.391380,-8.689018,-6.564537
18.701848,-1.154046,-10.129181,-7.797445
18.734734,-0.057912,-8.784490,-9.928959
18.768488,0.792359,-5.949804,-10.459294
18.801816,0.111634,-6.220957,-5.831137
18.835229,-0.755398,-7.274742,-5.131107
18.868487,-1.036726,-7.372609,-5.071250
18.901829,0.350913,-6.704154,-5.674161
18.935240,0.691500,-6.225745,-5.474986
18.968503,0.805079,-6.242206,-5.281648
19.001823,0.531681,-6.892404,-5.602782
19.035180,0.165954,-7.139914,-5.768586
19.068481,0.071829,-7.005385,-6.012654
19.101815,0.495468,-6.894799,-6.857538
19.135177,1.080422,-7.152933,-7.317241
19.168511,1.631258,-7.197975,-7.179120
19.201823,1.748578,-8.407240,-6.468017
19.235181,1.123819,-9.385157,-5.919426
19.268479,2.234020,-9.013294,-7.392212
19.301816,2.868506,-6.798578,-9.497239
19.335166,1.604621,-6.557504,-6.341569
19.368600,0.633439,-6.908416,-4.643720
19.401912,0.462546,-7.107142,-5.280151
19.435149,0.724721,-6.652826,-6.307301
19.468502,0.510432,-6.506775,-6.017143
19.501892,0.418102,-6.504231,-5.653810
19.535175,0.392813,-7.160116,-5.927956
19.568492,0.312006,-7.747464,-6.799027
19.601890,-0.312155,-7.355699,-7.276688
19.635162,-0.384732,-7.324723,-6.743210
19.668496,0.010924,-7.904140,-6.871604
19.701816,-0.639873,-9.072104,-6.804714
19.735169,-0.808371,-10.620908,-6.374640
19.768503,-0.319637,-9.873442,-8.487149
19.801813,1.044358,-5.502521,-10.382377
19.835165,0.610693,-5.539632,-6.773438
19.868344,-0.146650,-7.012268,-4.740988
19.901829,-0.850271,-7.290604,-4.940462
19.935173,0.403886,-6.622299,-5.864956
19.968500,0.872867,-6.114860,-6.052309
20.001824,0.904741,-5.957136,-5.767688
20.035200,0.904292,-6.308647,-6.221256
20.068575,0.701077,-6.734531,-6.420131
20.101944,0.497413,-6.594016,-6.154964
20.135147,0.715443,-6.526677,-6.515604
20.168482,0.947090,-7.032321,-7.337592
20.201820,1.072940,-8.796312,-6.070565
20.235161,1.139381,-9.020327,-5.699002
20.268479,3.264311,-7.806723,-8.901810
20.301845,1.990999,-6.459039,-7.561458
20.335172,0.925542,-6.552715,-4.490934
20.368272,0.722925,-7.595726,-5.157594
20.401821,0.941553,-7.450423,-6.783614
20.435267,0.707661,-6.682156,-6.229636
20.468489,0.756744,-6.404718,-5.794474
20.501807,1.003805,-6.932658,-6.083135
20.535308,0.965347,-7.414060,-6.027768
20.568497,0.871072,-7.312752,-6.350996
20.601833,0.951729,-6.878637,-6.600451
20.635155,1.114541,-6.774935,-7.630892
20.668084,0.633439,-8.238892,-6.357581
20.701826,0.200073,-9.357622,-7.683716
20.735193,1.084911,-8.337207,-9.130614
20.768626,2.558445,-6.317476,-10.249045
20.801839,2.040681,-6.450210,-7.983152
20.835163,0.905938,-6.978300,-5.898626
20.868233,-0.494271,-6.853348,-5.683289
20.901826,-0.020202,-6.301165,-6.783913
20.935057,0.477361,-5.875880,-6.945827
20.968497,0.855359,-5.746588,-6.439286
21.001822,0.562059,-6.103038,-5.538285
21.035170,0.281478,-6.820426,-5.067958
21.068478,0.477211,-7.313200,-6.027917
21.101823,0.773953,-7.265165,-6.683503
21.135151,0.926589,-6.928169,-6.763562
21.168502,1.247873,-6.776282,-6.524133
21.201821,1.339454,-7.075567,-6.121145
21.235224,1.320300,-7.537216,-5.681344
21.268549,0.968788,-8.026249,-6.812046
21.301827,0.687011,-8.112593,-6.978300
21.335162,0.437257,-8.032235,-7.026933
21.368492,2.041130,-6.844219,-8.836566
21.401820,2.447560,-5.525566,-9.368397
21.434975,1.364145,-5.193358,-6.700862
21.468489,0.833062,-6.298921,-5.382058
21.501823,1.186369,-7.016010,-6.524732
21.535021,1.531745,-6.830901,-7.381288
21.568522,1.433430,-6.455148,-6.997903
21.601800,1.340502,-6.561544,-6.554211
21.635158,1.136987,-6.607933,-6.577556
21.668522,0.624610,-6.791695,-6.626489
21.701837,0.479755,-6.799027,-6.565734
21.735155,0.552332,-7.045789,-7.130636
21.768487,0.634336,-7.391314,-7.464489
21.801825,0.335799,-7.527938,-7.668453
21.835153,-0.303626,-8.084311,-7.031872
21.868483,0.001796,-7.593631,-9.150816
21.901832,1.054833,-5.832334,-10.922439
21.934921,1.695455,-5.521675,-10.081296
21.968485,1.006199,-6.984435,-7.321730
22.001834,1.121574,-6.758624,-7.099959
22.035164,1.762944,-6.065627,-7.565798
22.068467,1.385843,-5.749282,-6.405766
22.101831,1.193403,-5.749881,-6.045425
22.135196,1.435674,-6.287697,-5.673563
22.168482,1.882808,-6.834792,-5.832932
22.201829,1.867993,-6.551667,-6.400079
22.235147,1.776411,-6.189980,-6.778676
22.268487,1.353371,-5.875880,-6.511563
22.301832,1.410684,-6.045874,-6.767602
22.335133,1.592051,-6.769248,-6.570523
22.368484,2.008208,-6.433450,-7.311704
22.401822,3.845375,-6.288296,-8.996534
22.435152,4.893175,-7.137220,-9.466862
22.468492,4.096027,-7.502349,-7.424834
22.501828,2.867757,-6.697420,-7.225360
22.535152,2.238060,-6.285303,-7.048332
22.568595,2.240903,-5.839217,-7.214586
22.601790,2.042477,-5.188420,-6.762065
22.635162,1.955384,-5.449398,-6.062485
22.668484,1.838663,-6.366709,-5.844754
22.701957,1.535935,-6.774037,-6.528473
22.735150,1.244730,-6.925925,-6.748598
22.768534,1.245778,-7.278932,-6.834044
22.801834,1.472487,-7.609942,-6.987727
22.835229,1.570802,-7.820640,-6.852300
22.868613,1.581277,-7.949033,-6.719417
22.901836,1.018470,-8.445249,-6.913504
22.935229,0.655137,-9.058935,-6.295778
22.968491,-0.113579,-8.095983,-8.608061
23.001845,0.260079,-7.171788,-8.763091
23.035155,0.337146,-6.357581,-7.900250
23.068510,-0.507888,-6.710738,-6.176812
23.101683,-0.919257,-6.636814,-6.561694
23.135156,-0.771409,-6.662852,-6.726301
23.168493,0.209201,-6.916198,-6.497796
23.201939,0.742828,-6.605090,-6.185491
23.235142,0.913121,-6.411003,-6.098848
23.268591,0.464641,-7.319336,-5.731475
23.301893,0.083800,-7.783528,-5.753771
23.335165,-0.272350,-7.385777,-5.800460
23.368501,-0.219975,-7.093076,-5.877227
23.401823,-0.088140,-7.279980,-5.669672
23.435190,0.148895,-7.315595,-5.838619
23.468492,0.489332,-7.424385,-6.376436
23.501812,0.633738,-7.779338,-6.338875
23.535164,0.508936,-7.897855,-6.370300
23.568506,0.250353,-8.210609,-6.558701
23.601637,0.360939,-8.381501,-6.686795
23.635152,0.518662,-8.529049,-6.518447
23.668506,2.021826,-8.654899,-7.450722
23.701826,1.873530,-7.414209,-7.695688
23.734912,0.661422,-6.512012,-6.340222
23.768474,-0.628351,-6.367756,-5.089207
23.801823,-0.614883,-6.545233,-5.676855
23.835161,-0.067040,-6.733184,-6.328550
23.868499,0.312903,-7.339238,-5.999036
23.901833,0.568643,-7.623111,-6.351595
23.935196,0.232844,-7.997218,-6.493905
23.968566,-0.339839,-7.623560,-6.270189
24.001839,-0.668754,-7.296590,-6.112765
24.035229,-0.692398,-7.280578,-5.576594
24.068517,-0.462995,-7.462544,-5.989459
24.101596,-0.236585,-7.504743,-6.057546
24.135189,-0.666510,-7.785923,-7.027083
24.168510,-0.481850,-8.206718,-5.748983
24.201826,-0.525995,-9.637604,-7.076166
24.235029,0.559814,-8.929793,-8.590702
24.268502,0.929133,-6.912008,-9.184186
24.301838,-0.188550,-6.819229,-6.589078
24.335149,-0.902197,-6.758624,-6.483131
24.368503,-1.362798,-6.383020,-5.750479
24.401827,-0.319787,-6.117703,-6.207040
24.435151,0.504596,-6.205693,-6.145836
24.468565,0.438753,-6.504680,-5.735515
24.501807,0.076318,-7.188099,-5.894286
24.535264,0.007033,-7.537366,-6.359077
24.568582,0.030826,-7.322029,-6.793490
24.601815,0.104301,-7.072275,-6.186389
24.635165,0.619971,-6.783165,-5.987514
24.667993,0.902796,-7.085893,-5.410341
24.701818,1.575441,-8.310870,-4.580122
24.734889,1.072042,-9.899480,-5.116442
24.768502,1.504809,-9.884515,-6.754284
24.801817,1.995189,-7.597522,-8.225723
24.835010,1.559579,-6.781519,-8.854074
24.868471,0.291654,-6.711636,-5.740303
24.901818,-0.071080,-6.487620,-5.348688
24.935206,0.343131,-6.540295,-5.722795
24.968492,0.760934,-6.950915,-5.898775
25.001823,0.774702,-7.311704,-6.038392
25.035164,0.533178,-7.508036,-6.266298
25.068521,-0.441746,-7.371112,-6.354588
25.101822,-1.119629,-7.032021,-6.082836
25.135167,-1.181730,-7.341633,-5.902816
25.168491,-0.246312,-7.638225,-6.517250
25.201881,0.322331,-7.823782,-6.826262
25.234810,0.024691,-8.689167,-7.494717
25.268484,-0.211445,-10.294387,-6.228738
25.301819,-0.323528,-9.730982,-7.503995
25.335124,0.640472,-7.167448,-9.314525
25.368481,0.504596,-5.896830,-7.401041
25.401820,-0.071380,-6.482981,-5.603679
25.435158,-1.218543,-6.776431,-5.436528
25.468494,-0.606503,-6.180703,-5.882614
25.501852,0.424387,-6.062185,-6.476247
25.535211,1.030441,-5.833232,-7.138717
25.568513,0.497114,-6.106629,-6.634121
25.601820,-0.145902,-6.566632,-6.392597
25.635217,-0.368271,-6.833146,-6.290690
25.668572,-0.246462,-6.511563,-6.782716
25.701842,0.025888,-6.523684,-6.682156
25.735197,0.633738,-6.929366,-6.907219
25.768536,1.026700,-8.262835,-7.264417
25.801956,1.135341,-9.307193,-6.918891
25.834977,1.186818,-9.552607,-6.838084
25.868549,2.404164,-7.281925,-9.657656
25.901871,1.613450,-5.474538,-9.313927
25.935037,0.440250,-5.733719,-5.532000
25.968527,-0.348518,-6.592670,-4.367928
26.001913,0.401642,-6.422077,-6.160650
26.035195,0.850421,-6.787056,-6.284555
26.068614,1.289324,-7.462694,-5.864956
26.101895,1.298901,-7.446532,-6.028965
26.135256,0.889478,-7.415107,-6.399630
26.168497,0.068536,-7.621764,-6.097202
26.201934,-0.391167,-7.703020,-5.762750
26.235210,-0.314849,-7.981805,-6.180852
26.268550,0.140814,-8.202229,-7.606052
26.301941,-0.276690,-8.563318,-7.995572
26.334866,-0.285668,-9.035441,-7.697334
26.368645,-0.709008,-8.696500,-8.567657
26.401908,0.009727,-6.729294,-9.145578
26.435093,-0.186305,-5.118387,-8.089398
26.468645,-1.103766,-5.536639,-5.305142
26.501959,-1.438069,-5.978834,-5.784598
26.534961,-1.092842,-6.181600,-6.481485
26.568549,0.048035,-5.985868,-6.714030
26.601829,0.510432,-5.631812,-6.395291
26.635202,0.431121,-5.935587,-6.082687
26.668569,-0.353157,-7.019601,-6.160950
26.701809,-0.650648,-7.143954,-6.721961
26.735276,-0.456860,-6.782567,-7.023791
26.768559,0.013917,-6.279916,-7.082601
26.801989,0.503698,-6.154814,-6.967675
26.835237,0.998268,-6.542689,-7.102653
26.868584,1.206870,-8.349179,-6.758175
26.901968,0.861345,-9.459978,-6.442129
26.934997,1.150455,-8.784640,-7.235236
26.968559,2.188528,-6.591772,-10.576614
27.001941,1.205374,-5.052993,-9.502177
27.035445,-0.182415,-5.404954,-6.689938
27.068525,-0.985399,-6.268992,-5.716660
27.101923,-0.367224,-6.163793,-6.772690
27.135209,0.134080,-6.130572,-6.793790
27.168586,0.619821,-6.535805,-6.384816
27.201890,0.808222,-7.167598,-6.434198
27.235209,0.468382,-7.638973,-6.423274
27.268642,-0.298388,-7.330709,-6.427165
27.301906,-0.466886,-7.060304,-6.761766
27.335295,-0.400295,-7.060005,-6.572618
27.368647,-0.190495,-7.397898,-6.849457
27.401925,-0.563106,-7.659325,-7.115372
27.434887,-0.874064,-8.491339,-6.833744
27.468354,-0.942900,-8.794965,-8.642928
27.501609,0.143358,-6.863224,-10.453308
27.535203,0.509834,-4.563212,-10.559854
27.568531,0.092928,-5.578539,-6.522936
27.601859,-0.477660,-6.644745,-6.122192
27.635237,-0.448330,-6.905573,-6.490912
27.668523,0.722027,-6.185641,-6.724505
27.701936,1.046603,-5.894735,-6.154814
27.735433,1.154495,-5.986167,-5.768586
27.768629,0.800440,-6.972463,-5.907455
27.801898,0.499957,-7.232842,-5.943967
27.835397,0.276241,-6.747849,-6.165140
27.868806,0.225811,-6.648038,-6.318075
27.902060,0.538565,-7.029477,-6.816984
27.935244,1.003206,-6.987877,-7.047135
27.968833,1.611355,-7.401340,-7.574477
28.001982,1.337958,-8.438216,-7.164156
28.034721,0.667856,-9.738464,-6.480437
28.068553,2.232673,-7.573878,-9.394135
28.101861,1.534738,-4.978322,-8.966456
28.135427,0.126748,-6.092264,-5.614603
28.168524,-0.238980,-7.250799,-4.469984
28.201818,0.367972,-7.059256,-6.299519
28.235164,0.799093,-6.495851,-6.202251
28.268765,1.067553,-6.288595,-6.093461
28.302115,1.029095,-7.055515,-5.232864
28.335544,0.686711,-7.663664,-5.559086
28.368511,-0.013169,-7.707360,-5.297660
28.402101,-0.438753,-7.581510,-5.277907
28.435235,-0.164009,-7.435908,-5.679997
28.468850,0.352559,-7.568042,-6.446768
28.502164,0.267113,-8.757853,-6.862775
28.535275,0.271452,-9.893643,-6.059791
28.568107,-0.220574,-9.722153,-6.946126
28.601881,0.687759,-7.330110,-9.418677
28.635200,0.963401,-5.158492,-9.595106
28.668776,0.172987,-6.188783,-6.824467
28.702100,-0.492026,-7.000147,-6.497796
28.735615,-0.082902,-6.757726,-7.449226
28.768601,0.766322,-6.246396,-7.520905
28.802005,1.148360,-5.917630,-6.907369
28.835844,1.213904,-6.031209,-6.238914
28.868747,0.906088,-6.554062,-6.304607
28.901933,0.679379,-6.683653,-6.567081
28.935990,0.405233,-6.676170,-6.237866
28.968532,0.520608,-6.356533,-6.488817
29.001699,0.795951,-6.426416,-7.024240
29.035968,1.099876,-7.005535,-6.795286
29.068742,1.715357,-6.974558,-6.860531
29.102112,2.190025,-7.404034,-7.552928
29.135243,1.332271,-9.195260,-6.923381
29.168642,1.472187,-9.474494,-6.321068
29.201878,2.711081,-6.673926,-9.644338
29.235396,1.780901,-5.315018,-7.954121
29.268475,0.667707,-6.338127,-5.229871
29.301979,0.295246,-6.956152,-4.490336
29.335949,1.150605,-6.499292,-6.577705
29.368603,1.314314,-6.350697,-5.995295
29.402030,1.261939,-6.425818,-5.067958
29.435672,1.372375,-7.015261,-5.420965
29.468596,1.157488,-7.458953,-6.311939
29.501924,0.284771,-7.389369,-6.622598
29.535717,-0.271602,-6.770146,-7.104149
29.568689,0.124503,-6.925027,-8.216745
29.601907,0.002694,-7.821538,-8.598933
29.635546,0.294797,-9.461026,-6.822072
29.668649,0.039356,-9.597500,-8.990249
29.701963,0.672944,-7.239875,-10.084289
29.735549,0.272201,-4.868783,-8.493734
29.768175,-0.416307,-5.818267,-6.156311
29.801977,-1.369832,-6.576508,-5.859120
29.835758,-0.993779,-6.326904,-6.412350
29.868645,0.013767,-5.736562,-6.940141
29.902014,0.435760,-5.436977,-6.518896
29.935371,0.615781,-5.669822,-6.286051
29.968676,0.236436,-6.254776,-6.421628
30.001918,0.076916,-6.597458,-6.655220
30.035502,0.405682,-6.711785,-7.116719
30.068735,0.942751,-6.627088,-7.415556
30.101942,1.539676,-6.483281,-7.930627
30.135582,1.967805,-7.182263,-7.910126
30.168639,2.142139,-8.522615,-6.666893
30.202008,2.369446,-9.525671,-6.686795
30.235733,2.893346,-7.057311,-10.100899
30.268122,1.655201,-4.907690,-9.838874
30.302017,0.183313,-5.302897,-6.290092
30.334649,-0.497862,-6.144339,-4.801593
30.368475,0.052674,-5.826947,-6.851402
30.402006,0.569990,-5.543972,-7.247806
30.435410,0.783830,-6.246396,-5.744344
30.468238,0.651096,-6.634270,-5.425904
30.501942,0.485891,-7.127194,-5.885307
30.535068,-0.126897,-7.059855,-6.909015
30.568637,-0.473919,-6.755332,-6.821025
30.601997,-0.316644,-6.999399,-6.880433
30.635264,0.167450,-7.370963,-7.309609
30.668606,0.147847,-7.458953,-7.704966
30.701932,-0.094724,-8.481164,-6.743959
30.735247,-0.663517,-9.458931,-7.601862
30.767995,-0.041750,-7.635681,-10.102246
30.802016,0.526294,-5.147867,-10.659516
30.835460,-0.458356,-5.828144,-6.525181
30.868573,-1.125465,-6.870856,-6.418485
30.901921,-1.087605,-6.670185,-7.183460
30.937115,0.334003,-5.924813,-7.518361
30.968599,0.857604,-5.896531,-6.578753
31.001906,0.972081,-5.891892,-5.943967
31.036468,0.647505,-6.460984,-6.308198
31.068610,0.139467,-7.116270,-6.258667
31.103058,0.009727,-7.038905,-6.042881
31.137241,0.389072,-6.747999,-6.375238
31.168610,0.837552,-6.733484,-6.760569
31.201936,1.332720,-6.820875,-6.835091
31.236999,1.905104,-8.220486,-6.856191
31.268563,1.628564,-9.464767,-6.735579
31.303751,1.488498,-8.792870,-7.322628
31.336671,2.284449,-6.371198,-10.577811
31.368554,1.103617,-4.336353,-10.661012
31.403632,-0.347321,-5.131257,-6.169030
31.436563,-0.192890,-6.869958,-4.834515
31.470284,0.736692,-7.191241,-5.371134
31.503571,2.021377,-7.216082,-5.965815
31.535506,2.254970,-7.566696,-6.099297
31.570317,1.682286,-7.280129,-5.854182
31.604015,0.824682,-7.069881,-6.068770
31.637170,0.316345,-7.108040,-6.126682
31.670362,0.373658,-7.283571,-6.249838
31.703413,0.655286,-7.730854,-6.158555
31.736912,0.914318,-7.923594,-5.432189
31.770348,1.264333,-7.902195,-5.613107
31.803322,0.852666,-8.500468,-6.731239
31.837001,0.162812,-9.452197,-5.792529
31.868350,-0.586600,-9.609621,-6.323013
31.903624,0.152187,-6.852599,-9.522679
31.936967,0.536620,-4.590447,-10.155668
31.970081,0.242122,-5.321004,-7.609793
32.003580,-0.648253,-6.713282,-5.868847
32.037163,-0.723673,-6.782267,-5.842360
32.070268,0.995126,-6.189831,-7.624308
32.103531,1.626170,-5.884410,-7.490378
32.137047,1.737504,-6.382122,-6.747400
32.170068,0.901000,-7.135574,-6.019238
32.203460,0.542156,-7.375602,-5.987065
32.237076,0.482898,-6.836588,-6.367307
32.269948,0.618474,-6.296826,-6.752788
32.303904,0.865086,-6.425668,-6.595812
32.336889,0.915665,-7.007929,-6.021632
32.370174,1.109004,-7.623410,-5.452390
32.403362,1.519774,-7.878552,-6.046174
32.436509,1.406644,-8.122470,-6.834942
32.470145,0.667557,-9.183288,-6.811597
32.503106,0.764376,-9.400720,-6.748598
32.536854,2.599747,-7.211443,-9.844411
32.570054,2.755675,-4.990892,-11.576678
32.603273,0.758390,-5.570459,-5.520478
32.636863,0.111484,-6.099596,-4.524903
32.670430,0.560114,-5.891892,-6.455148
32.703511,1.223331,-6.604641,-6.821773
32.736778,1.492539,-7.174781,-6.311042
32.769880,1.467698,-7.272797,-6.488518
32.803564,0.767519,-7.447281,-6.360274
32.836532,0.130489,-7.212191,-6.581746
32.870202,-0.421095,-6.912906,-6.178159
32.903304,-0.461499,-7.112080,-5.360510
32.936679,-0.178674,-7.268457,-5.631663
32.970236,0.247809,-7.564451,-6.580549
33.003284,0.117919,-8.456772,-7.279830
33.037159,0.180619,-9.262300,-6.738721
33.069891,-0.204263,-8.739148,-7.799839
33.102906,0.835157,-5.605176,-9.945270
33.136926,1.098828,-4.988497,-8.925154
33.169966,0.496515,-6.376735,-6.876542
33.203452,-0.393711,-7.256935,-6.282310
33.236731,0.376651,-6.419084,-7.175379
33.269984,1.095237,-5.855828,-8.331521
33.303578,1.016225,-5.714714,-7.049530
33.336595,0.430822,-5.842360,-6.026720
33.370182,0.090235,-6.113962,-5.926010
33.403372,-0.042349,-6.162297,-6.426117
33.436664,0.062700,-6.088822,-6.843322
33.470232,0.190795,-6.598356,-7.011520
33.503274,0.510582,-6.975606,-7.071677
33.536981,0.408226,-7.020499,-6.537152
33.568399,0.371264,-7.173135,-6.176812
33.603103,0.522254,-7.086042,-6.931611
33.636896,0.805528,-7.367072,-7.917908
33.670252,0.810466,-7.991682,-7.553976
33.703478,0.849822,-8.010537,-7.352108
33.736756,2.086172,-6.859034,-9.259008
33.770229,2.558445,-6.260911,-8.829084
33.803520,1.928000,-6.469962,-6.229935
33.836511,1.639787,-6.811897,-5.403457
33.870177,1.491042,-7.369317,-5.513445
33.903378,1.747231,-7.267709,-6.513658
33.936661,1.872781,-6.663301,-7.017207
33.970142,1.684980,-6.389455,-6.780172
34.003700,1.180234,-6.512461,-5.879172
34.036741,1.179785,-6.757127,-5.712769
34.068445,1.377912,-7.244963,-6.302662
34.103616,1.282739,-7.469428,-6.646092
34.136583,1.121275,-7.499057,-6.706398
34.169885,0.848176,-7.417801,-6.870557
34.203448,0.769614,-7.622812,-7.084696
34.236475,0.652743,-7.890673,-7.324573
34.270106,0.700030,-8.060667,-7.669351
34.303501,0.518363,-7.650196,-7.819293
34.336550,0.717837,-6.615415,-7.881694
34.370092,1.032686,-5.702144,-8.236946
34.403377,0.834259,-6.220059,-7.151736
34.436611,0.226110,-6.960791,-6.522038
34.470113,0.151139,-6.729294,-6.252831
34.503751,1.097930,-6.019388,-8.018168
34.536845,1.388387,-5.829491,-8.108702
34.568340,0.989439,-6.104085,-6.911110
34.603483,0.695690,-6.609280,-5.999186
34.636688,0.789367,-6.897043,-6.099746
34.669895,0.787870,-7.182263,-6.141795
34.703393,1.100175,-7.553228,-6.444074
34.736232,1.315362,-7.803281,-6.746503
34.769741,1.044059,-7.697184,-6.242655
34.803271,0.772756,-7.042945,-6.217664
34.837081,0.932276,-6.907668,-6.931012
34.870170,1.091196,-7.196479,-7.201268
34.903445,1.263435,-7.541256,-7.042496
34.936874,1.049446,-7.656631,-6.778825
34.969875,1.077729,-7.843535,-6.411751
35.003458,2.247338,-7.040102,-7.059256
35.036730,2.449954,-5.723244,-8.246224
35.068303,1.621082,-5.611461,-6.811448
35.103424,0.938112,-6.870856,-4.704475
35.136388,1.120826,-6.906471,-6.173370
35.170178,1.112745,-6.855892,-7.162809
35.203092,1.267176,-6.871305,-6.465174
35.234791,1.333768,-7.027382,-6.070865
35.270181,1.146265,-7.375751,-5.933941
35.302997,0.264120,-7.139764,-6.394991
35.336835,-0.152187,-7.014663,-6.719417
35.370100,0.057613,-7.262471,-7.093225
35.402926,0.501603,-7.839195,-7.087689
35.436753,0.458506,-8.723735,-7.026335
35.470069,0.308264,-9.819121,-6.504530
35.502976,-0.523301,-9.215312,-8.335711
35.536795,0.169097,-6.498095,-9.833487
35.570298,0.598572,-4.475521,-10.031914
35.603443,0.039955,-5.762301,-6.405317
35.636617,-0.506541,-6.683204,-5.673413
35.669832,-0.261726,-6.703555,-6.326605
35.703375,0.584805,-6.321816,-7.094422
35.734693,0.952477,-6.022680,-6.688591
35.770030,1.128757,-5.962074,-6.790348
35.803102,0.744923,-6.195517,-6.135959
35.836299,0.621018,-6.510516,-5.817968
35.870109,0.629099,-6.357880,-5.788638
35.903499,0.527491,-6.632924,-6.263904
35.936585,0.793257,-7.057461,-6.362818
35.970141,1.118581,-7.336545,-6.680510
36.002971,1.539976,-7.472869,-7.355250
36.037142,1.373722,-7.977166,-6.979197
36.069674,1.372824,-8.092242,-6.896295
36.103344,2.232972,-7.259179,-8.209113
36.136793,2.853242,-6.479390,-8.978876
36.170133,2.051605,-6.331393,-7.002392
36.203202,1.647868,-7.090532,-6.060390
36.235090,1.549702,-7.630443,-6.535506
36.268392,1.611206,-7.108639,-7.298984
36.301784,1.306533,-6.397685,-6.230683
36.334737,1.372824,-6.291438,-5.286586
36.368437,1.467249,-6.867713,-4.851424
36.401654,1.039270,-7.990634,-4.934027
36.435012,0.749262,-8.113940,-5.626724
36.468411,0.489332,-7.636130,-6.163344
36.501717,0.235239,-7.636130,-6.129375
36.535016,0.289110,-7.798642,-6.520542
36.568388,0.451473,-7.838447,-7.101156
36.601629,0.447283,-8.116484,-6.869509
36.635225,0.378896,-8.976631,-6.914252
36.668355,0.151588,-8.529648,-7.103850
36.701640,0.450575,-7.494119,-8.075931
36.735021,0.979712,-6.098249,-8.084011
36.768289,0.676685,-6.245049,-6.792892
36.801663,0.095622,-6.799476,-5.991554
36.835055,-0.061054,-7.024689,-6.204047
36.868253,0.875112,-6.550021,-6.925476
36.901675,1.547009,-6.200007,-7.260077
36.935241,1.432382,-6.408160,-6.106180
36.968237,0.839946,-7.095021,-5.683289
37.001610,0.618025,-7.399844,-5.727883
37.035016,0.483646,-7.115522,-6.433001
37.068339,0.511180,-6.940889,-6.831949
37.101636,0.525247,-7.051774,-6.607784
37.135203,0.481551,-7.330110,-5.564024
37.168339,0.470178,-7.509831,-5.260099
37.201645,0.452969,-7.529584,-5.747636
37.235040,0.345825,-7.515368,-6.931312
37.268392,0.193937,-7.640619,-7.733547
37.301660,0.389521,-7.836053,-8.113192
37.335227,0.900551,-8.206419,-7.778590
37.368336,2.046966,-7.919703,-8.192951
37.401645,2.648531,-6.678116,-8.510494
37.435175,1.331074,-6.382721,-5.266684
37.468484,0.786374,-6.676320,-4.044998
37.501745,1.085660,-6.596261,-5.960129
37.535327,1.218393,-6.496000,-7.100707
37.568303,1.097781,-6.855293,-5.839367
37.601772,1.113194,-6.761168,-5.521974
37.635303,0.938261,-7.169843,-5.517036
37.668348,0.558318,-7.705415,-5.735665
37.701697,0.188700,-7.638524,-6.078796
37.735004,0.492924,-7.573130,-6.973960
37.768259,0.770362,-7.600964,-7.840243
37.801569,0.800739,-7.788317,-7.659624
37.834967,0.027534,-9.563082,-5.673413
37.868219,-0.521206,-9.902472,-7.959808
37.901570,0.258433,-7.870770,-10.031764
37.934930,1.099726,-5.004808,-9.487213
37.968216,0.386228,-6.140299,-6.298621
38.001649,-0.267412,-6.954506,-5.463015
38.034856,-0.604857,-6.676919,-6.596261
38.068296,-0.023943,-6.337678,-6.756080
38.101621,0.436808,-6.332890,-6.399331
38.135586,0.576874,-6.368355,-5.638546
38.168288,0.203215,-6.682755,-5.692867
38.201605,-0.272799,-7.079458,-6.082836
38.234954,-0.363932,-7.172536,-6.323612
38.268269,-0.243469,-6.747400,-6.785110
38.301633,0.052674,-6.787954,-6.659261
38.334924,0.562657,-7.187800,-6.890908
38.368228,1.147761,-7.252894,-6.957948
38.401698,1.527406,-7.934668,-7.099361
38.434870,1.204626,-9.266041,-6.421179
38.468265,1.438967,-8.740196,-7.330110
38.501827,2.489011,-7.254690,-10.105239
38.534939,1.235303,-6.620952,-7.876756
38.568245,0.009128,-6.454549,-5.065563
38.601498,-0.474518,-6.437191,-4.880305
38.634899,0.046838,-6.246845,-6.739469
38.668240,0.588097,-6.409507,-6.518447
38.701620,0.951729,-6.933107,-5.869296
38.735139,0.838599,-7.581660,-6.115458
38.768245,0.543802,-8.032833,-6.148080
38.801502,0.198875,-7.851316,-5.918977
38.834867,-0.066441,-7.367970,-5.411688
38.868235,-0.057313,-7.558914,-5.242441
38.901805,-0.034119,-7.918357,-5.065414
38.934885,0.198875,-7.826176,-5.516438
38.968199,0.388024,-8.047648,-6.282011
39.001531,0.539313,-7.787569,-7.050727
39.034910,-0.473021,-8.214650,-7.443689
39.068135,-1.384197,-9.153809,-6.327353
39.101527,-1.271217,-9.299112,-6.662403
39.134842,0.906986,-6.262557,-10.211485
39.168275,0.413912,-5.662040,-7.508335
39.201574,-0.079460,-6.742612,-5.261147
39.235070,-1.150305,-7.276538,-5.371883
39.268229,-0.791013,-6.655220,-5.878723
39.301572,0.048933,-6.568278,-6.490613
39.335133,0.559515,-6.510665,-6.127430
39.368194,0.197678,-6.634121,-5.668624
39.401521,-0.242422,-7.063446,-6.092413
39.434824,-0.443991,-7.100408,-6.676919
39.468215,-0.183163,-6.784063,-6.819678
39.501783,0.295694,-6.629332,-7.210246
39.534916,0.685664,-6.836438,-7.038306
39.568172,0.733699,-7.301379,-6.370001
39.601618,1.144469,-7.886034,-6.220957
39.634842,0.862692,-9.177901,-6.041984
39.668202,0.100560,-9.616505,-5.855529
39.701775,1.310124,-8.749473,-7.248405
39.734763,2.339518,-6.711636,-9.705991
39.768230,1.148061,-6.342616,-6.258667
39.801796,-0.399397,-7.010622,-4.332762
39.834822,-0.469430,-7.117767,-5.322351
39.868193,0.212493,-6.747550,-6.773738
39.901733,0.626555,-6.776581,-6.180403
39.934771,0.777994,-7.092327,-5.225681
39.968123,0.564603,-7.511777,-5.390139
40.001703,0.072726,-7.772006,-5.625827
40.034760,-0.485442,-7.652291,-5.628670
40.068133,-0.336397,-7.799390,-5.857324
40.101599,0.011074,-7.831564,-7.067187
40.134829,-0.009727,-7.969085,-7.506090
40.168141,-0.596477,-8.973788,-6.817882
40.201522,-0.893668,-9.040230,-6.824467
40.234814,-1.158087,-8.230961,-7.658726
40.268188,0.201569,-5.826947,-8.845095
40.301744,-0.074522,-5.706484,-7.144852
40.335092,-0.562358,-6.520841,-5.482918
40.368124,-1.152999,-7.026335,-6.209584
40.401428,-0.668006,-6.493157,-6.653874
40.434798,0.205160,-5.982276,-7.250201
40.468142,1.087306,-6.073259,-6.772540
40.501505,1.038073,-6.578753,-6.136708
40.534800,0.549339,-7.080506,-6.296077
40.568055,0.322630,-7.523449,-6.095257
40.601562,0.454765,-7.293897,-6.391400
40.634790,0.652593,-7.001045,-6.893901
40.668205,0.738638,-6.922034,-7.257833
40.701438,0.980760,-7.188997,-7.240624
40.734787,0.920154,-8.258196,-7.122855
40.768049,0.273547,-8.826240,-6.240859
40.801437,1.494783,-8.189360,-7.730255
40.834848,2.463871,-6.589527,-11.182668
40.868094,1.502565,-5.939777,-8.390181
40.901391,-0.247061,-6.497946,-4.345930
40.934742,-0.409573,-6.727199,-4.450232
40.967996,0.573282,-6.346058,-6.519345
41.001406,0.902048,-6.473554,-6.110520
41.034747,0.763927,-6.803816,-4.912928
41.068090,0.640173,-7.114175,-5.118387
41.101448,0.261277,-7.709305,-6.040936
41.134747,-0.220873,-7.622961,-6.582344
41.168048,-0.432169,-7.506090,-6.573366
41.201433,-0.221920,-7.652441,-7.623111
41.234727,-0.078862,-7.836651,-7.866879
41.268094,-0.650797,-8.741692,-7.191541
41.301440,-1.029244,-9.123132,-7.543052
41.334665,-0.736692,-8.034928,-8.941465
41.368008,-0.172389,-5.781306,-9.674716
41.401475,-0.457010,-5.646328,-6.489865
41.435033,-0.923746,-6.418186,-5.739705
41.468051,-1.465004,-6.738422,-6.007566
41.501382,-0.472423,-5.953395,-6.744108
41.534847,0.284322,-5.751527,-6.679014
41.568067,0.688507,-5.787441,-6.275876
41.601472,0.380093,-6.339923,-6.137755
41.634768,-0.124353,-6.912756,-6.230384
41.668026,-0.388922,-7.207403,-6.268094
41.701322,-0.082004,-6.733933,-6.920687
41.734748,0.146500,-6.668090,-7.272647
41.767984,0.538116,-6.845267,-7.507287
41.801858,0.852815,-7.593182,-7.720977
41.835169,0.904891,-8.746331,-7.013765
41.868518,0.828274,-9.414337,-7.216082
41.901862,2.191970,-6.706398,-10.942341
41.935300,1.680640,-5.319507,-10.564044
41.968523,0.606503,-5.791481,-6.007715
42.001883,-0.429625,-6.574862,-3.803924
42.035219,0.128394,-6.363716,-5.351830
42.068648,0.474218,-6.375089,-5.615501
42.101887,0.683868,-6.818930,-4.971288
42.135209,0.581363,-7.095470,-5.369937
42.168594,0.291355,-7.137520,-6.125933
42.201851,-0.497413,-7.080655,-7.122406
42.235200,-1.056030,-6.975307,-6.979048
42.268597,-0.938710,-7.085594,-7.623859
42.301594,-0.874214,-7.301079,-7.971031
42.335126,-0.649301,-7.670249,-8.210160
42.368597,-0.928086,-9.165630,-6.946725
42.401910,-1.206721,-10.076507,-7.139764
42.435205,-1.193403,-8.501665,-8.990399
42.468535,-0.860896,-4.891229,-10.398539
42.501885,-0.683569,-4.899909,-6.658363
42.535280,-0.993480,-6.602396,-6.219161
42.568618,-1.057527,-6.999100,-6.743659
42.601866,0.275493,-6.235322,-6.505577
42.635193,0.486639,-5.697954,-5.787740
42.668577,0.323977,-5.603530,-5.408096
42.701869,-0.011822,-6.285602,-5.632411
42.735210,-0.288661,-6.970967,-5.813030
42.768544,-0.355103,-6.884024,-6.148380
42.801864,0.164308,-6.684850,-6.861428
42.835045,0.757942,-6.541043,-7.805975
42.868570,1.063961,-7.592883,-8.248619
42.901888,0.653940,-9.148571,-6.201802
42.935217,1.103018,-9.980586,-5.415279
42.968522,2.608875,-6.677966,-10.934410
43.001849,1.334067,-5.188271,-9.266939
43.035196,-0.011672,-6.378980,-5.863609
43.068672,-0.052824,-7.145002,-5.447901
43.101879,0.736243,-6.515903,-7.547392
43.135290,0.411069,-6.524881,-5.838918
43.168526,0.284621,-6.973810,-4.815660
43.201862,0.303775,-7.198574,-5.341056
43.235294,0.089935,-7.757191,-5.825001
43.268595,-0.733849,-7.387573,-6.300866
43.301865,-1.188165,-6.873400,-6.416390
43.335205,-0.921801,-7.216381,-7.058508
43.368543,-0.818248,-8.052586,-8.173797
43.401926,-1.690516,-8.938772,-6.871305
43.435192,-1.701590,-9.898432,-6.471908
43.468523,-0.945743,-8.149854,-8.789278
43.501957,-0.264868,-5.708579,-9.740259
43.535176,-0.321134,-5.622834,-6.640106
43.568591,-0.828573,-6.889561,-6.075953
43.601952,-0.782932,-6.958397,-7.252296
43.635214,0.246013,-6.318823,-7.113427
43.668531,0.952926,-5.679548,-6.782716
43.701885,0.946941,-5.504167,-5.895932
43.735209,0.801637,-6.032257,-5.656204
43.768531,0.384133,-6.565584,-5.646328
43.801859,0.429475,-6.644895,-6.271985
43.835201,0.967442,-6.361920,-7.595726
43.868546,1.380157,-6.151971,-8.369979
43.901942,1.326734,-7.207253,-7.136921
43.935213,0.838749,-8.421905,-5.458526
43.968524,2.310786,-8.634248,-6.507373
44.001850,3.268801,-6.963784,-9.632965
44.035185,1.933985,-6.059492,-7.613085
44.068619,1.453033,-7.889176,-4.972336
44.101871,1.576339,-8.268222,-5.839966
44.135211,1.630809,-7.542304,-7.019751
44.168536,0.751806,-6.755631,-6.139401
44.201865,0.023644,-6.313735,-5.273567
44.235219,-0.405981,-6.222453,-5.559086
44.268555,-0.382338,-6.982041,-5.888600
44.301852,-0.704818,-7.272198,-5.806446
44.335219,-0.584056,-7.501900,-6.148380
44.368505,-0.129890,-8.077726,-7.588693
44.401853,-1.026551,-9.229079,-8.410831
44.435208,-1.288426,-9.645984,-6.205693
44.468517,-2.160844,-8.978726,-9.112358
44.501863,-0.185408,-6.597309,-10.753941
44.535196,0.308564,-5.486659,-9.285794
44.568494,0.114626,-6.659560,-6.191178
44.601635,-0.128394,-7.223714,-6.248192
44.635216,0.104151,-7.060005,-6.736776
44.668584,0.749113,-6.440184,-6.590575
44.701857,0.747167,-6.021931,-5.594551
44.735204,0.611142,-6.078496,-5.298408
44.768599,0.385181,-6.586684,-5.443262
44.801954,0.096071,-6.980544,-5.431590
44.835213,0.062551,-6.864122,-5.430543
44.868529,0.222369,-6.852300,-5.621936
44.901857,0.641370,-6.880882,-5.932445
44.935218,1.155842,-7.062249,-5.694064
44.968624,1.354269,-8.070992,-6.160501
45.001931,1.168562,-9.488261,-5.960428
45.035199,1.282440,-9.251526,-6.270488
45.068534,2.726195,-7.108938,-9.318566
45.101872,2.328444,-6.226793,-9.359268
45.135208,0.438005,-7.586149,-4.249710
45.168129,0.216833,-7.553078,-4.559471
45.201812,0.625358,-7.154878,-6.956452
45.235290,0.516418,-6.493905,-6.477594
45.268604,0.433815,-6.443476,-5.991704
45.301837,0.464342,-6.900036,-6.232778
45.335268,-0.108192,-7.660821,-6.366559
45.368537,-0.755697,-7.350312,-6.600152
45.401816,-0.813908,-6.945228,-6.778526
45.435198,-0.344328,-7.523748,-7.562955
45.468599,-1.221386,-8.535484,-6.600301
45.501832,-1.902111,-9.673668,-5.549060
45.535202,-0.920454,-8.435074,-9.915940
45.568530,1.018470,-5.993050,-11.964702
45.601881,0.874813,-5.924813,-9.561286
45.635207,-0.326671,-7.048781,-5.773674
45.668078,-1.161977,-6.978599,-6.297574
45.701858,-0.157574,-6.745455,-6.941936
45.735319,0.853264,-6.185342,-6.263306
45.768511,0.835307,-6.160800,-5.165375
45.801880,0.717688,-6.331692,-4.957521
45.835209,0.409573,-6.945228,-5.235558
45.868569,0.465090,-6.879535,-5.665781
45.901845,0.629847,-6.732735,-6.090618
45.935191,0.826628,-6.623646,-6.141945
45.968546,1.160631,-6.691434,-6.288595
46.001878,0.895014,-7.675336,-6.229337
46.035292,0.326521,-9.424812,-5.450894
46.068542,1.566762,-9.648828,-6.991468
46.101838,2.724699,-7.326219,-10.679419
46.135226,0.780238,-6.392148,-6.633821
46.167934,0.261875,-7.468829,-5.140385
46.201879,0.008979,-7.397300,-5.770232
46.235274,0.241075,-6.581895,-6.911259
46.268567,-0.036064,-6.291289,-5.929901
46.301875,-0.011523,-6.429110,-5.593354
46.335755,-0.093228,-7.238379,-6.416241
46.368609,-0.384732,-7.581660,-6.664498
46.401869,-0.613087,-7.394457,-7.180168
46.435204,-0.035465,-7.007630,-7.715740
46.468532,-0.029779,-7.343428,-7.684016
46.501859,-0.656184,-8.306530,-5.710225
46.535255,-0.786673,-9.260803,-6.201204
46.568539,0.014066,-8.124565,-7.581959
46.601855,1.224229,-6.366858,-9.120438
46.635210,0.359442,-6.179805,-6.525779
46.668487,-0.183612,-6.929815,-5.582879
46.701859,-0.720980,-7.082451,-6.237118
46.735194,0.687011,-6.597758,-7.905038
46.768527,1.151502,-6.242056,-7.499805
46.801852,0.891423,-6.076252,-5.894286
46.835223,0.563256,-6.208237,-5.498032
46.868494,0.404186,-6.900934,-5.388194
46.901900,0.391466,-7.412863,-5.410640
46.935203,0.742528,-6.947623,-6.696223
46.968535,1.237846,-6.419682,-7.134078
47.001901,1.295758,-7.193187,-6.768051
47.035215,1.126662,-8.157336,-5.719353
47.068528,1.001710,-8.094786,-5.852236
47.101874,2.178352,-7.252146,-8.463206
47.135199,2.589272,-6.827609,-9.293426
47.168535,1.887297,-6.840778,-7.916112
47.201872,1.632754,-7.001793,-7.273096
47.235295,1.607614,-7.077812,-8.150752
47.268557,1.436872,-6.744857,-7.733847
47.301956,1.175745,-6.258517,-6.908566
47.335207,1.533092,-6.897941,-6.125035
47.368137,1.613750,-7.421542,-5.832932
47.401933,1.296656,-7.609493,-5.786693
47.435199,0.812412,-7.545446,-6.071763
47.468629,0.406281,-7.504743,-5.735365
47.501870,0.190495,-7.507287,-5.791781
47.535320,-0.086194,-7.483494,-6.330795
47.568529,-0.367224,-7.900100,-5.687629
47.601859,-0.605455,-8.366238,-6.800224
47.635304,-0.044444,-7.787269,-7.815851
47.668535,0.973577,-7.092028,-7.824680
47.701889,1.276454,-7.291203,-7.336245
47.735202,0.758540,-7.662168,-6.039589
47.768603,0.060605,-7.501302,-6.308049
47.801857,0.165954,-6.702657,-7.174481
47.835194,0.578071,-5.785047,-7.388172
47.868031,0.548890,-5.816472,-6.388257
47.901889,0.736243,-5.994547,-6.118900
47.935138,1.234255,-6.844519,-5.743895
47.968524,1.567061,-7.384131,-5.933642
48.001857,1.701889,-7.559064,-6.226793
48.035206,1.521420,-7.393409,-6.449012
48.068567,0.861046,-6.843322,-6.402773
48.101977,0.770212,-6.424172,-6.979796
48.135214,0.707512,-6.781220,-7.964297
48.168531,0.598273,-7.543052,-6.963036
48.201839,1.126063,-7.639422,-7.172237
48.235393,2.649877,-7.134976,-8.842851
48.268527,3.198019,-7.066439,-8.846891
48.301897,2.982384,-6.638460,-7.894414
48.335194,2.465218,-6.136109,-7.524047
48.367962,1.886549,-5.808092,-7.360488
48.401854,1.840459,-5.660993,-7.418848
48.435071,1.982769,-5.454336,-7.303474
48.468537,1.819808,-5.898476,-6.331992
48.501897,1.957030,-6.386312,-5.960727
48.535234,2.151566,-7.284020,-6.491212
48.568573,2.061930,-7.978064,-6.812196
48.601903,1.621381,-7.750756,-6.793640
48.635198,1.216448,-7.290904,-6.525480
48.668552,0.753153,-7.024988,-6.379428
48.701861,0.369169,-7.694940,-5.059578
48.735195,0.538565,-7.957264,-6.825813
48.768546,0.273697,-7.632090,-7.416454
48.801941,-0.092779,-7.281177,-7.552330
48.835254,-0.442644,-7.096069,-7.203363
48.868621,-0.981957,-7.431119,-6.945528
48.901888,-1.510496,-7.359739,-6.462630
48.935084,-1.766834,-7.020798,-6.642201
48.968615,-1.153448,-6.871903,-7.272797
49.001868,-0.444739,-6.664648,-7.086192
49.035384,-0.556672,-6.648636,-6.018041
49.068534,-0.724721,-6.906920,-5.576744
49.101863,-0.574928,-7.515817,-6.031209
49.135240,-0.577622,-7.661869,-5.918678
49.168544,0.007033,-7.431568,-6.554511
49.201875,0.821689,-7.320683,-7.066888
49.235212,1.378810,-7.530781,-7.477359
49.268545,1.249818,-8.348131,-7.196778
49.301876,0.880349,-9.240153,-5.234959
49.335203,2.191820,-8.866494,-6.392298
49.368545,1.871285,-7.679676,-7.415556
49.401956,0.437107,-6.592520,-5.962823
49.434962,-0.236585,-6.890908,-4.853519
49.468603,-0.393112,-7.534073,-4.972785
49.501896,0.060755,-7.250650,-6.530269
49.535372,0.078413,-6.916048,-6.298023
49.568546,0.339241,-7.261424,-5.801358
49.601881,0.209500,-7.814654,-5.610413
49.635297,-0.416606,-7.649598,-5.376222
49.668572,-0.996173,-7.206954,-5.946362
49.701872,-1.080721,-7.256935,-6.007117
49.735203,-0.668305,-7.611439,-6.783165
49.768568,-0.656334,-7.347319,-7.811511
49.801897,-0.902497,-8.236198,-6.538649
49.835202,-1.285283,-8.551346,-7.738785
49.868535,-0.547693,-8.141624,-8.143420
49.901858,0.547095,-6.550171,-8.856468
49.935195,-0.006285,-6.100644,-7.499805
49.968534,-0.438155,-6.381823,-7.143805
50.001871,-0.859848,-6.624544,-6.431055
50.035245,-0.176728,-6.245797,-6.452155
50.068511,0.505195,-5.999784,-6.563489
50.101845,0.701227,-6.423423,-5.744344
50.135194,0.099812,-7.066140,-5.457778
50.168545,-0.264120,-7.394756,-5.615950
50.201872,-0.338642,-7.202016,-6.379877
50.235209,-0.473770,-6.819828,-6.479689
50.268537,-0.216683,-6.663301,-6.702508
50.302322,0.358395,-6.910511,-6.499442
50.335281,0.553829,-7.893815,-5.870343
50.368529,0.346872,-8.736006,-5.881267
50.401858,1.192954,-9.070308,-6.920837
50.435217,2.127773,-8.807535,-8.134740
50.468536,1.967805,-7.997967,-7.802533
50.501861,0.526743,-6.881181,-6.071912
50.535206,-0.203664,-6.684999,-5.416177
50.568382,-0.429026,-6.780771,-5.286287
50.601884,0.373210,-6.808604,-5.961625
50.635307,0.714545,-7.068983,-5.984521
50.668527,0.617576,-7.099510,-5.853583
50.701867,0.173885,-7.491276,-6.070266
50.735211,-0.237184,-7.457905,-6.507373
50.768528,-0.690602,-7.362283,-6.520691
50.801869,-1.033584,-7.380839,-5.969257
50.835258,-0.955321,-7.579116,-5.682392
50.868543,-0.660374,-7.905487,-6.159154
50.901977,-0.820343,-8.303986,-7.621615
50.935193,-1.026401,-9.153360,-5.569112
50.968530,-1.741994,-9.242697,-6.947623
51.001891,-0.125102,-6.893901,-9.915791
51.035193,0.438005,-6.037494,-9.281903
51.068342,0.080508,-7.161911,-6.346806
51.101874,-1.132348,-7.563553,-6.022081
51.135219,-1.485506,-6.884922,-6.467419
51.168553,-0.599919,-6.128028,-6.680061
51.201843,0.066890,-5.649769,-5.752125
51.235194,0.019903,-5.886205,-4.808028
51.268572,-0.293300,-6.644895,-4.913676
51.301968,-0.678182,-7.606650,-5.365897
51.335208,-0.374856,-7.867478,-6.052159
51.368528,-0.042798,-7.621465,-6.207189
51.401866,0.395057,-7.613833,-6.216916
51.435245,0.569840,-8.516030,-7.158769
51.468564,0.441896,-9.539139,-6.317327
51.501849,0.792808,-9.654514,-6.004872
51.535215,2.448009,-8.209562,-9.144830
51.568270,1.569904,-6.625741,-9.752081
51.601954,0.210248,-6.515155,-5.579138
51.635228,-0.100410,-7.164006,-4.367928
51.668484,0.134080,-7.267559,-5.060924
51.701877,0.532729,-7.076016,-4.780943
51.735221,1.063213,-7.365426,-5.280301
51.768577,1.015327,-7.712298,-5.721897
51.801859,0.013019,-7.575375,-5.432338
51.835240,-0.692099,-7.222218,-5.557889
51.868557,-1.013831,-7.301528,-5.735216
51.901872,-0.917311,-8.038669,-6.445122
51.935250,-1.414275,-8.841354,-7.497411
51.968552,-1.505109,-8.692908,-5.940526
52.002019,-1.840459,-9.003866,-7.185705
52.035296,-0.870024,-6.977851,-8.222730
52.068563,-0.968489,-5.020072,-8.004102
52.101895,-0.749412,-5.873785,-5.828443
52.135327,-1.163624,-6.300267,-5.822757
52.168399,-0.920454,-6.476996,-6.331094
52.201955,1.135042,-6.890160,-7.152634
52.235248,1.667322,-6.860082,-6.810550
52.268567,1.154795,-7.108938,-6.679463
52.302095,0.176728,-7.556221,-6.806210
52.335256,-0.373658,-7.177923,-6.423872
52.368715,-0.665163,-6.478941,-6.433001
52.401543,-0.294797,-6.684102,-6.798129
52.435327,0.854312,-7.474366,-7.209947
52.468626,1.925306,-8.330473,-7.322927
52.501851,2.433494,-9.221896,-6.857987
52.535230,1.311620,-9.856682,-6.275427
52.568568,1.000213,-9.070607,-6.676619
52.601913,1.968403,-5.674909,-10.731494
52.635353,0.849822,-3.579160,-9.897983
52.668396,-0.235089,-4.693701,-6.380775
52.702088,-0.334153,-6.080143,-4.931633
52.735203,0.563705,-6.369402,-5.797317
52.768659,1.030741,-6.604791,-5.885008
52.801849,0.852666,-7.109836,-5.478578
52.835103,0.315896,-7.363181,-5.379065
52.868545,-0.525995,-7.464489,-5.737161
52.901916,-1.404100,-7.082152,-5.852386
52.935264,-1.652657,-7.257533,-5.789386
52.968737,-1.020565,-7.695538,-6.263605
53.001886,-0.109539,-8.186068,-7.076316
53.035220,-0.444739,-9.080334,-7.139315
53.068553,-0.886036,-9.890651,-6.219311
53.102275,-1.591453,-10.867370,-8.023855
53.135205,-0.641370,-6.437640,-10.220314
53.168546,-0.641519,-3.683611,-9.447707
53.202242,-0.747167,-5.249475,-6.635318
53.235275,-0.976720,-6.620054,-6.770745
53.268524,-0.233892,-6.670783,-6.418036
53.301880,1.236200,-6.259714,-6.394393
53.335041,1.748727,-6.816087,-5.695111
53.368550,1.686027,-7.187800,-5.759458
53.402230,0.705417,-7.184657,-5.444310
53.435164,0.330861,-7.301678,-5.086962
53.468547,0.166553,-6.929366,-5.393730
53.501897,0.868079,-7.389069,-6.099895
53.535222,1.760100,-7.907133,-6.858884
53.568667,2.525823,-8.018168,-7.447131
53.602151,2.507567,-8.498522,-7.473767
53.635213,1.474881,-9.027061,-6.594016
53.668602,1.052439,-8.957776,-6.764460
53.701966,1.859164,-5.580634,-10.863928
53.735205,0.854761,-3.996215,-9.022721
53.768612,-0.472872,-5.450595,-5.703342
53.801855,-0.011223,-6.953010,-5.289579
53.834926,1.031638,-6.829255,-6.359526
53.868610,1.464406,-7.000896,-5.980480
53.901923,1.191607,-7.510879,-4.604663
53.935219,0.698833,-7.663365,-4.448735
53.968452,0.085596,-7.836203,-4.655991
54.002307,-0.346573,-7.837699,-6.096154
54.035386,-0.710205,-7.590938,-6.001580
54.068676,-0.469729,-7.854160,-6.407412
54.101859,0.127346,-8.350675,-7.676234
54.135201,-0.767369,-9.340862,-7.589142
54.168651,-1.002308,-10.276580,-6.897492
54.201852,-0.633738,-9.008206,-9.724397
54.235209,0.194685,-5.687629,-10.572424
54.268528,-0.025140,-5.463913,-7.422589
54.302553,-0.491128,-6.989074,-6.151522
54.335309,-0.997520,-7.195132,-6.748448
54.368511,-0.631493,-6.427464,-6.069817
54.401912,0.054021,-5.794773,-5.067060
54.434777,0.176130,-5.794923,-4.100067
54.468546,0.077665,-6.199408,-4.187758
54.502414,-0.431271,-6.845117,-5.104471
54.535301,-0.523601,-7.114774,-5.588416
54.568543,-0.268908,-7.254091,-6.254477
54.601860,0.312754,-6.781369,-7.488283
54.635362,0.858951,-6.762215,-7.908181
54.668616,1.138035,-7.637028,-7.350162
54.702437,0.917611,-9.843064,-5.581832
54.735218,1.305036,-10.865574,-5.224933
54.768597,2.619649,-9.088564,-7.999014
54.802143,1.897622,-5.670420,-8.576785
54.835198,1.056629,-5.872139,-5.923317
54.868611,0.090384,-6.915898,-4.385436
54.902327,0.216982,-7.088586,-5.292871
54.935199,1.050194,-6.863972,-6.295329
54.968537,1.121873,-7.123154,-5.648423
55.002480,1.051092,-7.493071,-4.661079
55.035158,0.818996,-7.658876,-5.632561
55.068532,0.340438,-7.872267,-6.148978
55.102080,-0.355552,-7.765272,-6.061587
55.135210,-0.349117,-7.859696,-6.665695
55.168553,-0.217282,-8.182626,-6.940889
55.202186,-0.687460,-8.729272,-7.152484
55.235202,-0.664564,-9.528964,-5.599340
55.268520,-1.077729,-11.208706,-6.352642
55.302213,-0.604258,-8.246075,-8.382998
55.335261,-0.858951,-5.148316,-8.378958
55.368531,-1.065158,-5.314869,-6.213175
55.402140,-1.366689,-7.423038,-5.540680
55.435215,-0.675189,-7.419746,-6.690237
55.468516,0.564752,-6.528473,-6.733184
55.502130,1.196994,-6.101841,-5.311127
55.535046,1.438218,-6.526827,-5.114197
55.568569,1.213305,-6.955853,-5.584226
55.601979,0.555924,-7.645557,-5.360061
55.635161,0.487986,-7.684016,-5.347790
55.668513,0.895613,-7.158919,-6.349350
55.702285,1.253260,-7.100558,-7.118515
55.735179,0.846530,-8.080569,-6.515454
55.768629,0.425884,-9.446061,-5.099383
55.802061,3.249197,-9.163386,-8.467397
55.835226,3.451066,-6.296526,-12.442212
55.868554,1.046154,-5.151010,-7.908330
55.901921,-0.118667,-6.715975,-4.104257
55.935234,0.429924,-7.336395,-5.520628
55.968507,1.550002,-7.366922,-6.720016
56.001934,2.081533,-7.149341,-5.959381
56.035215,1.897772,-7.283122,-5.030996
56.068594,1.491791,-7.672643,-4.967547
56.101850,0.539313,-7.781284,-5.114497
56.135118,-0.031126,-7.709156,-5.063917
56.168585,-0.331609,-7.809267,-4.954828
56.201916,0.075270,-8.205072,-5.915835
56.235313,0.379794,-8.091793,-6.529071
56.268423,0.232246,-8.023855,-7.482596
56.301892,-0.649001,-9.340563,-5.693615
56.335178,-1.011437,-9.923273,-5.889946
56.368508,-0.555325,-8.729122,-7.610541
56.401923,0.215785,-5.845353,-8.515582
56.435232,0.033370,-6.027019,-6.791695
56.468535,-0.574629,-6.668239,-6.211978
56.501927,-0.907884,-6.730491,-6.726002
56.535294,0.252148,-6.314483,-7.047285
56.568601,1.007546,-6.442578,-6.560197
56.601990,1.349929,-6.794239,-5.625827
56.635137,1.180533,-7.390566,-5.591708
56.668510,0.238381,-7.816450,-5.995445
56.701938,-0.013169,-7.701225,-6.096454
56.735207,0.300782,-7.026036,-6.384965
56.768554,0.717388,-6.509767,-6.441081
56.801989,0.842939,-6.651479,-6.856939
56.835222,1.110051,-7.072126,-7.123304
56.868494,1.540424,-7.908929,-6.446169
56.901820,1.492688,-8.673455,-6.088074
56.935239,0.657082,-9.607376,-5.730427
56.968540,1.996536,-8.418763,-7.866580
57.001889,2.158001,-6.388856,-9.709583
57.034846,0.888879,-5.737161,-6.973810
57.068516,-0.667856,-5.877526,-4.792016
57.101870,-1.016973,-5.975243,-4.744280
57.134930,-0.358245,-5.862861,-6.141795
57.168562,0.482449,-6.490164,-6.267346
57.201875,0.978815,-7.314098,-5.884709
57.235174,0.845183,-7.908630,-6.766704
57.268525,0.002095,-8.216146,-7.632987
57.301868,-0.594681,-7.816899,-7.374554
57.335284,-0.888281,-7.586448,-7.040102
57.368620,-0.684916,-7.619370,-6.790647
57.401973,-0.524349,-7.659175,-7.016907
57.435197,-0.878254,-8.120823,-6.869509
57.468521,-1.319701,-8.840756,-6.285902
57.501881,-2.109517,-8.664476,-7.681621
57.535279,-0.778443,-5.895034,-9.784254
57.568516,-0.063598,-4.704924,-9.050854
57.601871,-0.099812,-6.470561,-6.372246
57.635230,-0.716042,-7.213089,-6.554960
57.668523,-0.223267,-6.373592,-7.503546
57.701850,0.724571,-6.087625,-7.078261
57.735272,1.125914,-6.510965,-5.872289
57.768624,0.874364,-6.503782,-4.934626
57.801432,0.299286,-6.700413,-4.831223
57.835185,-0.059708,-7.076016,-5.246033
57.868520,0.169845,-7.051026,-6.104534
57.901837,0.421544,-6.946126,-6.649983
57.935218,0.630296,-6.898241,-7.035164
57.968638,0.955321,-6.860381,-6.605988
58.001825,1.536833,-7.603059,-6.398732
58.035139,1.788981,-8.909591,-6.492409
58.068502,0.896810,-9.619946,-6.104983
58.101880,0.708859,-8.505256,-6.781818
58.135394,1.548954,-6.080442,-9.291630
58.168524,0.458506,-4.881203,-8.234851
58.201826,-0.357946,-5.991255,-5.472742
58.235142,-0.351960,-6.372695,-5.629717
58.268595,0.881547,-6.791545,-6.981442
58.302131,1.763392,-7.578218,-6.223351
58.335228,2.036790,-8.042710,-6.158555
58.368548,0.929432,-7.671595,-5.858521
58.401898,0.152636,-7.644510,-6.528622
58.435149,-0.774253,-7.206056,-6.407112
58.468513,-1.459468,-6.850654,-6.561394
58.501888,-0.869725,-6.989822,-7.093375
58.535272,-0.617427,-7.399993,-7.511477
58.568205,-1.112895,-8.632902,-6.254626
58.601845,-1.413976,-9.567123,-5.869445
58.635151,-1.340053,-8.986957,-7.865233
58.668510,-0.321583,-5.503568,-9.542880
58.701972,-0.357198,-5.688826,-7.885136
58.735163,-0.798345,-6.614817,-6.294581
58.768531,-1.198640,-6.929516,-6.866516
58.801413,-0.593634,-6.288446,-7.524347
58.835147,-0.138869,-5.628071,-7.359440
58.868539,-0.086793,-5.683439,-6.437939
58.902004,-0.569242,-6.100195,-6.046922
58.935230,-1.188913,-6.418934,-6.214372
58.968511,-1.328081,-6.767004,-6.488369
59.001862,-1.100175,-6.579351,-6.751142
59.035142,-0.722177,-6.502884,-6.985333
59.068611,-0.280730,-6.479989,-6.977102
59.101919,-0.051328,-6.741115,-6.760569
59.135165,0.176878,-7.490078,-6.517250
59.168547,-0.001347,-8.776409,-6.700113
59.201846,-0.147099,-8.922461,-6.592370
59.235152,0.479905,-8.063809,-7.668154
59.268552,2.402817,-7.060603,-9.429900
59.301887,2.184338,-6.572618,-7.998266
59.335200,1.339005,-6.548525,-5.811833
59.368526,0.559515,-7.186752,-4.766876
59.401858,0.776797,-7.149042,-5.894136
59.435210,0.781435,-6.890758,-6.324510
59.468599,0.715593,-6.833146,-5.859120
59.501899,0.815554,-6.946426,-5.761104
59.535228,0.883193,-7.530632,-5.813479
59.568551,0.710505,-7.772006,-6.114411
59.601894,0.696139,-7.598270,-6.755332
59.635235,0.609346,-7.495765,-7.165204
59.668605,0.512377,-7.736241,-7.052971
59.701872,0.368571,-7.561009,-7.323526
59.735170,0.013468,-7.596624,-7.528986
59.768536,-0.542456,-8.251013,-7.025587
59.801890,-1.019817,-7.737139,-6.649684
59.835217,-0.044893,-6.737225,-7.881993
59.868539,1.211809,-6.701161,-8.633799
59.901897,0.624460,-7.437554,-7.286564
59.935235,0.211445,-7.331457,-6.615116
59.968518,0.704968,-6.870856,-6.623047
60.001843,1.072790,-6.767752,-6.520841
60.035232,0.877656,-6.581596,-6.069817
60.068498,0.797298,-7.046237,-5.412136
60.101878,0.472123,-7.049829,-5.167470
60.135345,0.476613,-6.856341,-5.794773
60.168503,0.788469,-6.852300,-7.468979
60.201868,0.790264,-7.071976,-7.308262
60.235317,0.962503,-6.850804,-7.141261
60.268642,1.279746,-7.062997,-7.034715
60.301926,1.212856,-7.793105,-6.178159
60.335181,1.264333,-8.101519,-5.718156
60.368508,1.543567,-7.399993,-6.264952
60.401903,1.422506,-6.644895,-6.630380
60.435251,1.053786,-6.450958,-5.868847
60.468536,1.079075,-7.639272,-5.708729
60.501895,1.169160,-7.682819,-6.397535
60.534741,1.155094,-7.252595,-6.363566
60.568555,1.120975,-7.023043,-5.700648
60.601904,1.233806,-7.560411,-5.303346
60.635449,0.865984,-8.026548,-5.165974
60.668565,0.136175,-7.771557,-5.830837
60.701887,0.255889,-7.651842,-7.035463
60.735217,0.536620,-7.603508,-7.926737
60.768584,0.537817,-7.949931,-7.452368
60.801932,0.140515,-9.318416,-5.639294
60.835204,-0.234640,-9.656459,-6.736177
60.868573,0.267711,-6.858286,-9.880475
60.901977,1.004104,-6.220508,-9.651970
60.935187,0.360789,-7.095919,-7.225210
60.968565,-0.542007,-6.739320,-6.969770
61.002004,-0.615033,-6.226643,-8.039268
61.035080,0.022297,-6.248192,-7.467183
61.068630,0.833661,-6.229486,-6.412200
61.101944,0.930181,-6.251783,-5.638995
61.135187,0.422741,-6.715377,-5.056585
61.168513,-0.277288,-7.267110,-5.467055
61.201991,-0.441596,-7.112829,-6.104684
61.235239,-0.245414,-6.711785,-6.375538
61.268514,0.012570,-6.455597,-6.670484
61.301840,0.328766,-7.070180,-6.091515
61.335171,0.941254,-7.275490,-6.151073
61.368540,1.255055,-7.883789,-5.907305
61.402029,1.321198,-8.281839,-6.196864
61.435228,0.938561,-8.515582,-6.861877
61.468579,0.972978,-8.625569,-6.891956
61.501843,1.858116,-8.421606,-6.818182
61.534854,2.930308,-6.751441,-9.401019
61.568569,2.036790,-5.571805,-6.945378
61.601846,1.147761,-5.950851,-5.702743
61.635214,1.338556,-6.540145,-6.216617
61.668518,1.595643,-6.739619,-7.060154
61.701885,1.636795,-6.381972,-7.070180
61.735176,1.522018,-6.364464,-6.991318
61.768562,1.005601,-6.806210,-6.584589
61.802013,0.690752,-7.046387,-6.493756
61.835263,0.339241,-6.733334,-6.827160
61.868570,0.179123,-7.149491,-6.816685
61.901853,0.439801,-7.578218,-6.663600
61.935193,0.652443,-7.625056,-6.852749
61.968666,0.329663,-7.833509,-6.868761
62.001939,0.133781,-8.167512,-6.560646
62.035195,0.008679,-8.167213,-6.060390
62.068517,0.366775,-6.904825,-7.539012
62.101845,0.929133,-6.750393,-7.867927
62.135366,0.492625,-7.361086,-7.077662
62.168621,0.228056,-6.809802,-6.539097
62.201944,0.522852,-6.734082,-6.330346
62.235172,0.728163,-6.822671,-5.825001
62.268585,0.806276,-6.957798,-5.603380
62.301674,0.899204,-7.349115,-5.728182
62.335230,0.671897,-7.225510,-5.588565
62.368510,0.601864,-6.878937,-6.562741
62.401873,0.889029,-7.002242,-7.321880
62.435185,1.498524,-7.179869,-7.501302
62.468486,1.736008,-7.526292,-6.366110
62.501856,1.611206,-8.002755,-5.772926
62.535395,1.545662,-8.019964,-6.341569
62.568602,1.815618,-7.762878,-6.875944
62.601916,1.766834,-6.734082,-7.085145
62.635198,1.037325,-6.014449,-6.830452
62.668512,0.361986,-6.398583,-5.575995
62.701841,0.768417,-7.219374,-5.932295
62.735298,1.075484,-7.551432,-6.531466
62.768627,1.412629,-7.305419,-6.680959
62.801847,1.509897,-7.516266,-5.904761
62.835184,1.492838,-7.951278,-5.586022
62.868520,0.850271,-7.946789,-5.427101
62.901895,0.156975,-7.520157,-5.491447
62.935415,-0.114028,-7.431867,-6.017741
62.968622,0.057613,-7.249901,-7.159218
63.001853,0.029031,-7.426181,-7.881844
63.035170,-0.432019,-9.341611,-6.030910
63.068546,-0.479456,-9.480330,-8.835668
63.101978,-0.442345,-6.962138,-10.675677
63.135229,-0.105199,-5.134698,-9.586726
63.168595,-0.827525,-5.690772,-6.733933
63.201841,-1.444354,-6.073708,-5.734168
63.235180,-1.179635,-6.236370,-6.570523
63.268586,0.365727,-6.605240,-6.820426
63.301917,0.599470,-6.897193,-6.332141
63.335334,0.772307,-7.189745,-6.171874
63.368374,0.371563,-7.424834,-6.345160
63.401843,-0.149493,-7.462245,-6.423423
63.435190,-0.282376,-6.984884,-6.616762
63.468552,-0.104600,-6.499292,-6.878188
63.501952,0.000150,-6.593418,-6.723757
63.535335,0.031126,-7.048632,-6.052908
63.568565,0.359293,-7.225210,-5.686582
63.601866,0.692099,-7.290155,-5.888899
63.635245,1.027748,-7.612037,-6.150624
63.668525,1.374470,-8.409634,-7.046836
63.702062,0.691201,-9.123730,-7.198873
63.735372,-0.133781,-9.091557,-6.917844
63.768520,1.566313,-7.215633,-8.367435
63.801846,2.379323,-5.848944,-10.852406
63.835078,1.216747,-5.625677,-7.269804
63.868637,0.009128,-6.433599,-4.329919
63.901930,-0.269357,-6.842573,-4.541364
63.935208,0.212044,-7.038157,-6.181152
63.968528,0.571935,-7.505043,-5.736712
64.001872,0.601116,-7.473618,-5.494590
64.035298,0.500107,-7.499955,-5.790733
64.068578,-0.175382,-7.478706,-6.792593
64.101861,-1.391979,-7.048632,-6.082537
64.134776,-1.286480,-6.993563,-5.766192
64.168570,-0.826777,-7.106843,-6.816087
64.201883,-0.776198,-7.780984,-7.357345
64.235291,-1.219889,-9.129267,-6.498844
64.268609,-1.134892,-10.352748,-6.169330
64.302120,-0.956817,-8.511541,-8.296355
64.334986,-0.435910,-5.599789,-9.224440
64.368528,-0.732353,-5.671917,-6.588779
64.401933,-1.489546,-6.961240,-6.113064
64.435217,-1.702338,-6.926224,-6.568876
64.468662,-0.749861,-6.083285,-6.834044
64.502067,0.225063,-6.001730,-5.993050
64.535205,0.500855,-6.238614,-5.422312
64.568516,0.339989,-6.669287,-5.978086
64.601846,-0.500705,-7.374853,-6.210033
64.635273,-0.697635,-7.457157,-6.555857
64.668536,-0.362136,-7.041150,-6.817733
64.701872,0.442793,-6.729144,-7.948135
64.735227,0.492475,-7.568791,-7.981057
64.768625,0.437107,-8.756656,-6.449910
64.801851,1.433131,-10.144295,-5.856277
64.834954,2.712129,-8.006646,-9.115051
64.868552,1.320150,-5.903115,-8.763540
64.901845,-0.249006,-6.888214,-4.639530
64.935196,-0.482150,-7.120011,-4.780194
64.968455,-0.200222,-6.873549,-6.387360
65.001900,0.064047,-7.001644,-5.876778
65.035285,0.256488,-7.070629,-5.339410
65.068632,0.522254,-7.484242,-5.257555
65.101842,0.224315,-8.038520,-5.769484
65.135231,-0.495917,-7.452967,-6.288446
65.168482,-0.927188,-6.804414,-6.667641
65.201871,-0.811963,-7.357195,-6.767752
65.235287,-1.092693,-8.012183,-6.833595
65.268598,-1.795566,-9.212020,-5.501773
65.301836,-1.537581,-9.534201,-5.882165
65.335181,-0.168648,-6.955853,-9.479881
65.368470,-0.390269,-4.840051,-9.244343
65.401884,-1.227521,-6.324958,-6.450808
65.435232,-1.732267,-7.203063,-7.085444
65.468544,-0.832913,-6.270189,-7.557418
65.501848,0.055817,-6.312388,-6.375687
65.535365,0.179572,-6.666144,-5.264888
65.568559,-0.147698,-7.078860,-5.060476
65.601929,-0.744324,-7.471972,-5.637349
65.635347,-0.936615,-7.462694,-5.364700
65.668096,-0.663517,-7.112230,-5.695411
65.701846,-0.126748,-6.382122,-6.984884
65.735206,0.072427,-6.590724,-6.983088
65.768504,0.289559,-7.322628,-7.007779
65.801863,0.207255,-9.397577,-7.195880
65.835310,0.120014,-9.857579,-6.787056
65.868491,1.314613,-7.994226,-8.780599
65.901810,2.251228,-6.813992,-10.213580
65.935211,1.456475,-6.736028,-6.916946
65.968548,0.401791,-6.837635,-5.423809
66.001946,-0.076767,-6.573665,-5.745541
66.035287,0.009128,-6.076102,-6.252980
66.068548,-0.152337,-6.353989,-5.604877
66.101830,-0.050280,-7.041000,-4.841398
66.135202,0.246163,-7.536767,-5.366346
66.168551,-0.172239,-7.604555,-5.943668
66.201942,-0.780837,-7.530033,-6.155413
66.235233,-0.978366,-7.715291,-6.314483
66.268510,-0.734897,-7.958760,-6.553014
66.302293,-0.627453,-8.037472,-6.812196
66.335170,-1.353221,-8.771471,-7.020648
66.368552,-1.610757,-9.472548,-6.269441
66.401588,-1.762495,-9.279359,-7.666807
66.435309,-0.178075,-6.419084,-10.194276
66.468514,-0.359442,-4.908289,-9.121785
66.501847,-0.792210,-6.596860,-5.272969
66.535174,-1.305784,-7.185555,-5.865704
66.568620,-0.661422,-6.844968,-6.611076
66.601896,0.762880,-6.380626,-6.156012
66.635192,1.154196,-6.142394,-5.503419
66.668514,1.014878,-6.400678,-5.108810
66.701840,0.313652,-7.053420,-5.263840
66.735316,-0.208453,-7.219075,-5.336118
66.768623,-0.207255,-7.043394,-5.760954
66.801908,0.173885,-6.997304,-6.765058
66.835175,0.523900,-7.062549,-7.770659
66.868526,1.049296,-7.165353,-8.342594
66.901844,1.031339,-8.774913,-7.619220
66.935308,0.590042,-9.947066,-6.341120
66.968736,1.228868,-9.023619,-7.397449
67.001876,1.865449,-5.794325,-10.632730
67.035166,0.496964,-5.560882,-6.764909
67.068513,-0.302428,-6.789749,-4.442001
67.101899,-0.058361,-7.307065,-4.674846
67.135340,0.682372,-6.829255,-5.949804
67.168612,0.900402,-6.891806,-5.352728
67.201912,0.868977,-7.252595,-4.103509
67.235208,0.649450,-7.508634,-4.577578
67.268544,0.120163,-7.725317,-5.574948
67.301850,-0.975223,-7.276837,-6.266897
67.335267,-0.792659,-7.218177,-6.803666
67.368630,-0.528838,-7.569539,-8.227818
67.401900,-1.456624,-9.157849,-7.141261
67.435205,-1.425648,-10.086084,-5.678651
67.468516,-1.524862,-10.027574,-7.605902
67.501914,0.452371,-6.224997,-10.557011
67.535290,-0.188550,-5.578539,-7.782181
67.568648,-0.843238,-6.573815,-5.452091
67.601947,-1.296207,-6.839730,-7.306018
67.635187,-0.228205,-6.258667,-7.737737
67.668550,0.494720,-6.095855,-6.650581
67.701897,0.720680,-6.337379,-4.796505
67.735360,0.502651,-6.514406,-5.174354
67.768540,-0.156527,-6.946875,-5.736113
67.801388,-0.382787,-7.252894,-6.170677
67.835192,-0.267861,-6.792742,-6.637413
67.868513,0.322780,-6.604491,-7.179569
67.901896,1.160032,-6.785260,-8.185320
67.935194,1.174398,-7.622662,-8.194897
67.968542,0.980161,-9.112507,-6.774037
68.001836,1.751720,-9.161291,-6.962288
68.035345,2.717965,-6.272583,-11.214093
68.068519,1.071593,-5.184829,-8.612550
68.102081,-0.416756,-6.633223,-4.477916
68.135431,-0.563406,-6.927720,-3.918999
68.168585,0.238980,-6.562442,-5.720700
68.201892,1.045106,-7.079009,-5.249924
68.235212,1.221984,-7.475713,-4.744430
68.268581,1.172004,-7.758538,-4.897514
68.302070,0.516268,-7.804029,-5.469749
68.335241,-0.433516,-7.502648,-5.791781
68.368589,-0.986446,-7.142757,-6.193422
68.401868,-0.770661,-7.628348,-7.703769
68.435330,-1.261490,-8.429387,-7.892319
68.468680,-1.005601,-9.082728,-5.839816
68.502054,-1.180982,-9.835881,-8.236049
68.535247,0.003143,-7.470924,-9.514299
68.568610,-0.505943,-5.496086,-8.596239
68.601923,-1.031190,-6.037195,-6.009212
68.635200,-1.722540,-6.676470,-6.180703
68.668545,-1.643379,-6.295479,-7.297638
68.702001,-0.734747,-5.934390,-6.965281
68.735252,0.038159,-6.017592,-6.009062
68.768578,0.451772,-6.140449,-5.524219
68.801922,0.086344,-6.536853,-5.942920
68.835230,-0.373359,-7.005684,-6.658961
68.868570,-0.523301,-7.016159,-7.160415
68.902076,-0.093676,-6.843172,-7.230298
68.935306,0.484245,-6.819079,-7.523898
68.968514,0.781136,-7.513273,-7.841739
69.001817,0.488584,-8.283485,-6.289194
69.035290,0.231947,-9.486764,-4.786479
69.068600,2.744152,-8.005598,-8.636044
69.101894,2.011949,-5.963271,-10.497902
69.135183,0.618025,-6.188035,-6.816236
69.168346,-0.205909,-7.105197,-5.584375
69.201920,0.217282,-6.588629,-6.708493
69.235374,0.395955,-6.560646,-6.425818
69.268673,0.498610,-6.805612,-4.859655
69.301929,0.817050,-7.105945,-5.176299
69.335212,0.779191,-7.494717,-5.429944
69.368524,-0.050879,-7.661569,-5.914039
69.401848,-1.044657,-7.244814,-5.850291
69.435507,-0.961606,-7.282823,-6.483730
69.468585,-0.702125,-7.681023,-7.804029
69.501877,-1.505707,-8.504358,-7.580463
69.535293,-1.055581,-9.289535,-5.508207
69.568864,-1.207619,-9.789193,-7.400742
69.601857,-0.228505,-7.112978,-9.765848
69.635404,-0.638526,-5.533347,-8.170804
69.668681,-1.395720,-6.506475,-6.146285
69.701893,-1.857668,-6.867564,-6.914701
69.735185,-1.025054,-6.403671,-7.516715
69.768541,-0.043546,-6.158107,-6.275277
69.801873,0.132584,-5.786992,-5.356020
69.835480,0.193788,-6.214672,-5.463464
69.868572,-0.300483,-7.378295,-5.911495
69.902097,-0.714994,-7.395953,-5.943967
69.935298,-0.358245,-7.102802,-6.439286
69.968541,0.547244,-6.535506,-7.519408
70.001855,1.029693,-7.076016,-7.929580
70.035350,0.801338,-8.200882,-6.458290
70.068503,0.408675,-9.256913,-4.537025
70.101837,2.379622,-8.384345,-7.241222
70.135226,2.531959,-7.004786,-9.355378
70.168510,0.657980,-6.655220,-5.343600
70.201893,0.226859,-7.424984,-5.033540
70.235301,0.435461,-7.265614,-6.320320
70.268536,0.843837,-6.956302,-7.270851
70.301920,0.924943,-7.011969,-6.796184
70.335207,1.162127,-7.307963,-6.560796
70.368528,0.828124,-7.588693,-5.719802
70.401910,0.516567,-7.584503,-5.527810
70.435512,-0.063149,-7.278783,-5.323398
70.468279,-0.278934,-7.705265,-5.058979
70.501848,-0.172389,-8.179334,-5.370386
70.535172,-0.123156,-8.195645,-6.199408
70.568524,-1.491791,-9.205286,-5.740603
70.601972,-1.430736,-9.939135,-6.365811
70.635276,-1.347535,-8.807834,-8.368333
70.668624,0.269058,-6.238166,-9.488560
70.701847,-0.040254,-6.248641,-6.698467
70.735216,-0.433516,-7.081104,-5.757363
70.768605,-1.277502,-6.986530,-6.767453
70.802035,-0.424537,-6.395141,-6.714928
70.835277,0.328915,-6.394692,-6.092713
70.868515,0.892770,-6.259864,-5.491597
70.901757,0.882594,-6.601948,-5.567615
70.935229,0.497413,-7.028280,-5.739855
70.968582,0.440698,-7.090831,-5.663537
71.002027,0.856257,-7.206355,-6.144190
71.035228,1.198640,-7.107142,-6.999399
71.068520,1.172901,-7.233291,-7.133928
71.101903,0.999016,-7.974473,-6.420730
71.135255,0.671598,-8.781497,-5.454785
71.168547,2.419427,-8.609557,-7.685213
71.201855,3.230791,-6.855293,-10.301570
71.234755,1.777459,-6.356982,-8.365340
71.268518,0.609196,-7.275191,-5.427400
71.301856,0.354205,-7.172536,-5.942022
71.335241,0.779041,-6.545682,-7.249004
71.368601,0.377998,-6.488967,-5.882015
71.401742,0.446834,-6.650731,-4.983709
71.435203,0.509534,-7.442791,-5.369339
71.468512,0.110885,-7.692695,-5.884859
71.501769,-0.593783,-7.296291,-5.996492
71.535218,-0.472722,-7.539461,-6.313885
71.568702,-0.302129,-8.174545,-7.183460
71.602075,-1.648916,-9.385007,-6.820576
71.635252,-1.845696,-9.886909,-6.223201
71.668528,-1.334366,-8.675849,-8.099275
71.701938,0.172239,-6.384965,-9.538690
71.735267,0.027834,-6.016245,-6.566333
71.768610,-0.525845,-6.808604,-5.834130
71.801941,-1.501817,-7.008078,-6.712234
71.835261,-0.382038,-6.476696,-6.575610
71.868524,0.314549,-6.243403,-6.113812
71.901918,0.758390,-6.115608,-5.611611
71.935218,0.950382,-6.728396,-5.890695
71.968528,0.552631,-7.227156,-6.124736
72.001727,0.392813,-7.272049,-6.202251
72.035260,0.779640,-6.952711,-6.717322
72.068548,1.053636,-6.795137,-6.767453
72.102004,0.829471,-7.657529,-6.848260
72.135332,0.286417,-8.739447,-5.542924
72.168566,0.675189,-8.901062,-5.860467
72.201932,2.653918,-7.822585,-9.366002
72.235232,1.337209,-6.663002,-7.610541
72.268538,0.669951,-7.363331,-5.495188
72.301927,0.273398,-7.620118,-5.713368
72.335329,0.176429,-6.703854,-7.071228
72.368619,0.364231,-6.516501,-6.523235
72.401885,0.685065,-6.731389,-5.649620
72.435089,1.006498,-7.457456,-5.532000
72.468542,0.708859,-8.067102,-5.378766
72.501649,0.024841,-7.852065,-5.732672
72.535341,-0.218329,-7.673092,-6.207040
72.568596,-0.041750,-7.733996,-7.016010
72.601869,-0.480055,-8.034031,-7.045190
72.635250,-0.750459,-8.950294,-5.234810
72.668516,-1.093142,-9.061928,-6.577107
72.702058,0.112382,-8.102268,-8.246972
72.735222,1.293813,-6.740966,-7.472720
72.767940,1.022660,-7.370364,-5.915386
72.801893,0.385780,-7.711550,-5.607421
72.835387,-0.591090,-7.401639,-5.622983
72.868517,-0.115824,-6.873998,-5.646926
72.902140,0.720830,-6.580399,-5.945165
72.935308,1.129655,-6.906621,-4.995082
72.968527,1.016824,-7.445784,-5.139038
73.001987,0.627004,-7.870172,-5.514193
73.035244,0.577921,-7.963549,-5.872588
73.068574,0.713049,-7.671446,-6.069668
73.102108,0.850271,-7.334300,-5.859120
73.135414,0.911774,-7.423637,-5.728033
73.168556,1.256851,-7.735493,-5.688677
73.201873,1.191457,-8.372972,-6.399331
73.235141,0.332058,-9.001622,-5.606373
73.268586,1.038223,-8.955532,-5.869894
73.301929,2.684594,-8.273459,-7.731303
73.335229,3.030868,-6.608083,-8.590104
73.368502,1.465603,-6.376735,-5.574050
73.401917,0.586002,-6.466521,-4.745926
73.435174,0.364081,-6.703405,-6.068470
73.468586,0.648553,-6.879535,-6.299220
73.501900,0.825281,-6.943283,-5.924963
73.535193,0.950233,-7.345074,-6.351146
73.568111,0.770362,-7.739384,-6.711935
73.601332,0.285668,-7.894264,-6.717023
73.635169,-0.240177,-7.473318,-6.192824
73.668593,-0.209799,-7.415107,-6.184743
73.701947,-0.083351,-7.810913,-6.668838
73.735166,-0.360640,-8.331970,-7.227904
73.768524,-0.489931,-8.765485,-6.676619
73.801916,-0.870623,-8.756507,-6.885671
73.835347,0.309911,-6.623346,-8.466050
73.868645,1.138334,-6.122791,-8.221383
73.901927,1.082667,-7.119562,-6.259415
73.935178,-0.287763,-7.807770,-5.862412
73.968641,0.449976,-7.129589,-6.007117
74.001836,1.309974,-6.583990,-6.849158
74.035353,1.473235,-6.527874,-6.564238
74.068676,1.463059,-6.957350,-6.128028
74.101898,1.428192,-7.288060,-5.979732
74.135255,0.903694,-6.994461,-5.860167
74.168665,0.927786,-6.693529,-6.465174
74.201795,0.994677,-6.965430,-6.753985
74.235234,0.855808,-7.219075,-6.976953
74.268554,1.052289,-6.803966,-7.711999
74.301906,1.377463,-6.829106,-8.139379
74.335332,1.328231,-7.144702,-7.544249
74.368521,1.580230,-7.031273,-6.695474
74.401919,2.329342,-6.692631,-7.086641
74.435314,3.365021,-6.660907,-7.640919
74.468652,3.278228,-6.734382,-7.243018
74.501979,2.805207,-6.722560,-6.970817
74.535246,1.828936,-6.324061,-6.884473
74.568516,1.650412,-6.066226,-7.064195
74.601902,2.218157,-6.181301,-7.162211
74.635288,2.678908,-6.967376,-6.160950
74.668569,2.667236,-7.579864,-5.498929
74.701831,1.973641,-7.525245,-5.953545
74.735177,1.188764,-6.862027,-6.805163
74.768524,0.584505,-6.446319,-7.457007
74.801955,0.342982,-6.549124,-7.632239
74.835325,0.260379,-6.725104,-7.688655
74.868556,0.165206,-7.526591,-6.422077
74.901919,0.182714,-8.260889,-7.519708
74.935197,-0.016610,-7.719182,-8.197590
74.968512,-0.015862,-7.285965,-8.054382
75.001917,-0.570289,-6.870108,-7.035014
75.035215,-1.021313,-7.127942,-6.748747
75.068529,-1.068002,-7.470475,-6.458141
75.101915,-0.871521,-7.230448,-7.011520
75.135273,-0.665612,-6.891207,-6.856191
75.168524,-0.378447,-6.944929,-6.203598
75.201986,-0.375604,-6.823269,-5.385201
75.235345,-0.576425,-6.927421,-4.930585
75.268607,-0.824682,-7.418549,-4.814163
75.301851,-0.747467,-7.569090,-5.543224
75.335306,-0.631344,-7.762279,-6.047071
75.368592,-0.533477,-7.763476,-6.219311
75.401913,-0.609196,-7.796098,-6.290840
75.435302,-0.661721,-7.708407,-6.273182
75.468527,-0.625358,-7.821538,-6.221854
75.501849,-0.241823,-8.564664,-6.082238
75.535242,-0.079011,-8.978876,-6.168731
75.568582,0.719633,-9.041128,-6.661805
75.601955,2.016888,-9.641196,-7.449525
75.635223,2.210975,-8.499121,-7.832611
75.668500,0.946192,-6.607185,-6.963485
75.701846,-0.106995,-6.405466,-5.111653
75.735230,-0.032921,-6.581596,-5.990806
75.768581,0.041451,-6.926972,-6.458590
75.801843,-0.000898,-6.945677,-5.659945
75.835198,0.252747,-7.092477,-5.430543
75.868561,0.364830,-7.475413,-5.895633
75.901912,-0.272949,-8.385243,-6.066375
75.935197,-0.678780,-8.583819,-6.776880
75.968595,-0.376801,-7.863886,-7.527340
76.001897,-0.213241,-7.364678,-8.712811
76.035011,-0.637180,-7.565798,-6.505727
76.068520,-1.451986,-8.527254,-6.011905
76.101994,-1.337808,-7.931824,-6.022380
76.135352,-0.172838,-7.152334,-7.261873
76.168692,-0.116572,-6.597159,-6.987428
76.202054,-0.920603,-6.643997,-6.242206
76.235248,-1.562871,-6.073708,-6.032556
76.268544,-1.639039,-5.713817,-5.414381
76.301904,-0.763329,-6.154964,-5.298258
76.335228,-0.150840,-6.672878,-5.547114
76.368684,-0.077814,-7.401789,-5.998138
76.401950,-0.695840,-7.799690,-6.113962
76.435195,-1.113044,-7.815552,-5.991704
76.468544,-0.994078,-7.565947,-5.775918
76.501804,-0.474518,-7.333851,-5.936336
76.535267,-0.217431,-7.475563,-5.866004
76.568592,-0.484544,-8.102417,-6.044976
76.601902,-0.623861,-8.999078,-5.511350
76.635280,-0.169246,-9.073450,-5.174204
76.668575,1.306682,-8.729571,-7.123902
76.701822,1.489097,-8.613298,-7.779039
76.735274,0.804480,-7.977615,-5.654857
76.768574,0.175830,-7.381138,-5.206976
76.801894,-0.242272,-7.226108,-4.990293
76.835192,0.181816,-7.293148,-5.823505
76.868619,0.636581,-7.620118,-5.612209
76.901826,0.770512,-8.031936,-5.442215
76.935313,0.388623,-7.967589,-5.559984
76.968654,-0.168199,-7.754498,-5.380562
77.001303,-0.770811,-7.839195,-4.945250
77.035167,-0.561161,-8.246524,-4.817156
77.068472,-0.175531,-8.533539,-5.184679
77.101881,-0.580315,-8.825492,-6.246396
77.135271,-0.769614,-9.292378,-4.176385
77.168513,-1.195946,-9.861620,-5.890096
77.201809,-0.163859,-8.369530,-8.004850
77.235163,0.484843,-7.000297,-8.325685
77.268536,-0.479456,-7.001644,-5.566269
77.301832,-1.115139,-7.107591,-5.756465
77.335203,-1.399311,-7.212640,-6.680211
77.368049,-0.673842,-6.778227,-6.963635
77.401848,0.591389,-6.478193,-6.605838
77.435169,0.921801,-6.410853,-5.711871
77.468608,0.756445,-6.846314,-5.186625
77.501721,0.264569,-7.719331,-5.138140
77.535294,0.282376,-8.114389,-5.462566
77.568575,0.778892,-7.731901,-6.327951
77.601964,1.013382,-7.741030,-6.396338
77.635338,1.186519,-7.857302,-6.154515
77.668523,1.108854,-8.995636,-5.859868
77.701916,0.838749,-9.635659,-5.873935
77.735157,1.726880,-9.676362,-6.479839
77.768576,2.800418,-8.107804,-9.848002
77.801833,1.144170,-6.442129,-7.699728
77.835180,0.280730,-6.406065,-5.284042
77.868558,-0.068237,-6.978748,-4.887339
77.901872,0.487237,-6.863074,-5.353327
77.935200,0.993928,-7.001644,-5.243489
77.968593,0.979263,-7.487684,-4.397258
78.001805,0.780238,-7.666059,-4.293705
78.035170,0.232246,-7.683267,-4.826284
78.068551,-0.397601,-7.543800,-5.506412
78.101848,-0.546047,-7.802234,-5.382358
78.135108,-0.276839,-8.334364,-5.359612
78.168554,0.068387,-8.837314,-5.566568
78.201919,-0.262025,-8.684528,-6.752937
78.235201,-1.434926,-9.823461,-5.659047
78.268525,-1.365941,-10.217171,-8.409934
78.301834,-0.052525,-6.982340,-10.825470
78.335232,-0.366476,-4.754755,-8.942513
78.368498,-1.221086,-5.290776,-4.417011
78.401849,-1.871435,-6.006967,-5.691969
78.434666,-1.390632,-5.824552,-6.422975
78.468502,0.889178,-6.671831,-7.198724
78.501866,2.165633,-6.990271,-7.014064
78.535216,2.620847,-7.745818,-6.458889
78.568474,1.856321,-8.872031,-6.340222
78.601859,1.274509,-9.170718,-6.110969
78.635093,0.488884,-7.814953,-6.445271
78.668572,0.297640,-6.636964,-6.747550
78.701912,0.797896,-6.635767,-6.895996
78.735307,1.285882,-6.833894,-6.824916
78.768542,0.957715,-7.867029,-4.936571
78.801905,0.638676,-8.801250,-4.604364
78.835216,0.693595,-9.615308,-4.936122
78.868499,2.116101,-8.162125,-7.808818
78.901896,1.948650,-6.653425,-8.838511
78.935120,0.889029,-6.539995,-6.229187
78.968510,0.288661,-7.471523,-5.565371
79.001457,0.729659,-7.618173,-6.395740
79.035162,1.152999,-7.269205,-6.563040
79.068554,1.265830,-6.971117,-5.756016
79.101858,1.009641,-7.408224,-4.725724
79.134930,0.675039,-7.638674,-4.774059
79.168575,0.161165,-7.476461,-5.474986
79.201313,-0.017808,-7.698980,-5.715762
79.235210,0.166403,-7.798941,-5.688976
79.268515,0.268160,-8.198937,-6.063682
79.301935,-0.618025,-9.434240,-6.218263
79.335351,-0.973727,-10.444030,-5.598292
79.368592,-0.928385,-9.675464,-8.070843
79.401897,0.114327,-6.559449,-10.216274
79.435201,-0.036812,-5.246033,-8.786136
79.468586,-0.779191,-6.690387,-6.081938
79.501837,-1.342896,-7.219374,-6.289493
79.535202,-0.591389,-6.876991,-5.944865
79.568021,0.497264,-6.614966,-5.864507
79.601959,1.069348,-6.380925,-5.632710
79.635200,1.007995,-6.761168,-5.618344
79.668517,0.249305,-7.271450,-5.537837
79.701321,-0.092779,-7.188249,-5.479027
79.735243,-0.014066,-7.071677,-5.581233
79.768516,0.362585,-7.318288,-6.153917
79.801878,0.588995,-7.796547,-6.573066
79.835279,0.637928,-7.810464,-6.182648
79.868527,1.230963,-8.196393,-6.759671
79.901926,0.894715,-9.123282,-6.062784
79.935158,-0.206358,-10.274784,-4.537473
79.968569,2.056992,-8.508548,-7.240474
80.001835,1.937427,-7.054617,-9.503225
80.035206,0.578071,-6.558701,-6.397685
80.068510,-0.719483,-6.743360,-4.219632
80.101830,-0.058061,-6.503183,-5.705736
80.134913,0.693296,-6.859932,-5.252168
80.168527,0.884689,-7.493221,-4.367778
80.201846,0.926439,-8.136536,-4.215143
80.235268,0.505045,-8.309374,-4.884346
80.268478,-0.135876,-8.334962,-5.464511
80.301787,-0.703920,-8.022358,-5.401362
80.335212,-0.749412,-7.983302,-6.286051
80.368595,-1.322095,-8.948050,-7.030824
80.401873,-1.323143,-9.921627,-6.628135
80.435194,-1.292167,-9.630870,-8.210310
80.468542,0.033670,-7.715890,-9.603186
80.501823,-0.603061,-6.974409,-7.987043
80.535196,-1.521719,-7.083947,-5.702144
80.568561,-1.551049,-7.467033,-6.232629
80.601904,-1.032985,-6.774037,-5.556692
80.635209,0.029480,-6.509019,-5.929751
80.668548,0.578520,-6.511114,-5.542475
80.701836,0.380692,-6.655220,-4.296548
80.735236,0.010325,-7.546344,-4.928341
80.768523,-0.325324,-7.596026,-5.836673
80.801657,-0.491128,-7.458803,-5.953844
80.835164,-0.231348,-7.296740,-6.213923
80.868499,0.139168,-7.438601,-6.682755
80.901936,0.795502,-7.724120,-7.526591
80.935188,0.431121,-8.856319,-7.471972
80.968374,-0.091432,-9.720207,-5.982426
81.001830,0.926739,-8.931888,-6.545532
81.034783,1.644576,-7.150239,-9.355827
81.068535,0.910428,-6.141197,-7.717386
81.101833,-0.288811,-6.647589,-4.915621
81.135247,-0.381590,-6.716574,-4.624416
81.168495,-0.576724,-6.740068,-5.041022
81.201897,0.706315,-7.204260,-5.195603
81.235207,1.078028,-7.772155,-4.647461
81.268495,0.758390,-7.782930,-4.968894
81.301552,0.097567,-8.268371,-5.334322
81.335246,-0.343281,-8.291865,-5.606822
81.368489,-0.503848,-8.445998,-5.189468
81.401839,-0.278635,-8.563018,-6.153168
81.435228,-0.078862,-8.618985,-6.426117
81.468603,-0.697486,-9.071954,-6.279018
81.501839,-0.903993,-10.010814,-5.291075
81.535243,-1.440463,-9.624885,-6.720165
81.568623,-0.791611,-7.449076,-8.234103
81.601888,-1.069199,-6.617959,-5.300503
81.635304,-1.597887,-7.290455,-4.836011
81.668615,-2.000128,-7.708856,-5.654857
81.701809,-1.149856,-6.688292,-6.712384
81.735284,-0.090684,-6.236968,-6.180104
81.768572,0.801637,-6.535805,-5.470647
81.801837,0.876608,-7.540508,-5.492794
81.835314,0.300333,-7.893067,-5.817070
81.868564,-0.375005,-7.947537,-5.724591
81.901903,-0.359442,-7.689552,-5.848196
81.935284,0.142759,-7.545147,-6.324510
81.968586,0.831416,-7.816899,-6.841676
82.001844,1.098828,-8.380155,-6.947922
82.035239,0.528090,-9.465964,-5.828742
82.068310,0.346573,-10.152675,-5.013488
82.101892,2.488263,-6.924278,-10.802275
82.135428,0.581662,-5.665183,-8.190258
82.168544,-0.870174,-6.495701,-4.323484
82.201856,-0.509684,-7.116869,-5.285688
82.235216,-0.215336,-6.845866,-6.030461
82.268563,0.310808,-6.913055,-5.759607
82.301864,0.959810,-7.573729,-5.842659
82.335213,0.790264,-8.053484,-5.638696
82.368523,0.178674,-7.907732,-4.950787
82.401879,-0.817799,-7.480352,-4.714202
82.435209,-0.928086,-7.723222,-4.552438
82.468600,-0.666061,-8.295008,-4.618580
82.501989,-0.426333,-8.482660,-5.883661
82.535237,-0.258583,-8.254754,-6.465473
82.568526,-0.411817,-8.791074,-6.891357
82.601887,-0.817050,-10.193827,-5.177646
82.635293,-1.867245,-10.281518,-6.251933
82.668523,-0.577322,-8.158085,-8.904055
82.701847,-0.453568,-6.325707,-6.667341
82.735187,-0.788319,-7.202165,-5.384901
82.768600,-1.651310,-7.570736,-5.678052
82.801856,-1.343494,-6.160351,-6.831500
82.835203,-0.441746,-5.662190,-6.758923
82.868524,0.345825,-6.015497,-5.389690
82.901861,0.656783,-6.812046,-5.027255
82.935207,0.007033,-7.903991,-5.053592
82.968567,-0.747018,-8.294559,-5.071699
83.001853,-0.613536,-7.618322,-6.135510
83.035221,0.124204,-7.332055,-6.873549
83.068545,0.444739,-7.356447,-7.159966
83.101842,0.595878,-8.064558,-6.618259
83.135216,0.424687,-9.076144,-5.642587
83.168520,-0.106097,-10.087880,-4.822843
83.201895,1.180533,-8.427591,-7.125847
83.235228,1.744388,-6.625890,-10.390458
83.268571,1.144769,-7.074819,-7.744471
83.301859,0.025140,-7.400143,-4.941809
83.335218,-0.013618,-7.326968,-5.131855
83.368518,0.267113,-7.205308,-5.676855
83.401884,0.507439,-7.128840,-5.007801
83.435043,0.696139,-7.228203,-4.853519
83.468503,0.516119,-7.707360,-4.881802
83.501577,-0.377998,-8.110797,-4.903051
83.535204,-1.174248,-7.943347,-4.937768
83.568573,-1.483261,-7.923744,-5.074841
83.601870,-1.259096,-8.153895,-5.868398
83.635224,-0.828573,-8.396166,-6.464725
83.668421,-0.768865,-8.683930,-7.245562
83.701836,-1.123669,-9.639550,-6.018939
83.735224,-2.209328,-10.175870,-5.986915
83.768662,-1.558232,-8.421306,-7.680125
83.801844,-0.329214,-5.524069,-8.859162
83.835205,-0.350913,-6.389155,-6.462480
83.868539,-1.099427,-7.406727,-5.236156
83.901865,-1.948501,-7.687757,-5.883661
83.935219,-0.947689,-6.452305,-6.955105
83.968669,-0.050579,-6.063233,-6.884773
84.001892,0.750759,-6.636665,-5.655606
84.035222,0.445936,-7.110734,-5.088758
84.068522,-0.140365,-7.616078,-5.088159
84.101964,-0.386827,-7.552480,-5.137691
84.135274,-0.175232,-7.432915,-5.753322
84.168372,0.292851,-7.496214,-6.314783
84.201844,0.817948,-7.660073,-6.576209
84.235291,0.863739,-8.010986,-6.235472
84.268514,0.813758,-8.855870,-5.696757
84.301888,-0.243619,-10.091471,-3.832655
84.335320,1.089251,-8.910789,-5.713218
84.368560,2.140642,-6.742911,-10.183502
84.401843,1.067104,-6.624693,-7.064943
84.435258,0.361986,-7.563852,-4.471032
84.468557,0.213241,-7.962202,-4.253900
84.501864,0.643764,-7.818096,-5.409293
84.535275,0.642118,-7.352557,-4.956923
84.568518,0.828423,-7.322329,-4.421650
84.601849,1.096883,-7.932273,-4.775855
84.635222,0.653491,-8.234402,-5.449098
84.668297,-0.278635,-7.978363,-5.171361
84.701893,-0.729809,-7.755994,-4.954977
84.735315,-0.188400,-8.092691,-5.716959
84.768523,-0.324127,-9.139892,-6.634570
84.801853,-0.815554,-9.797872,-5.383555
84.835220,-1.431933,-10.194725,-5.745242
84.868534,-0.329514,-8.754711,-8.226920
84.901954,0.583458,-6.590724,-9.601241
84.935211,0.300184,-6.277821,-6.787505
84.968594,-0.592137,-7.625805,-5.029200
85.001832,-0.868677,-8.054532,-4.844391
85.035248,0.308713,-7.454463,-5.359462
85.068589,0.867779,-6.839730,-4.920709
85.101852,0.922549,-7.048781,-4.432873
85.135205,0.403737,-7.800139,-4.653746
85.168668,-0.104750,-7.928383,-4.765978
85.201878,-0.230600,-7.774400,-4.603167
85.235226,0.368720,-7.574627,-5.603829
85.268512,0.844884,-7.544997,-6.400827
85.301860,0.893518,-7.752702,-6.208985
85.335225,0.655286,-8.648614,-5.727135
85.368491,0.353906,-9.483472,-5.752574
85.401856,0.057164,-9.472099,-5.938131
85.435174,1.925007,-8.288424,-8.717600
85.468076,2.733079,-7.115073,-10.171081
85.501860,1.825644,-6.925176,-7.394157
85.535159,0.700628,-7.104149,-4.764631
85.568547,0.961905,-7.320084,-5.215057
85.601893,1.411582,-7.453566,-5.972549
85.635209,1.495232,-7.313649,-5.462566
85.668515,1.363397,-7.376050,-4.778848
85.701887,1.265381,-7.662467,-5.025758
85.735267,0.804331,-7.806873,-5.569411
85.768519,0.389970,-7.788466,-5.568813
85.801826,0.575527,-8.035826,-5.574499
85.835206,1.011886,-8.381950,-6.048718
85.868520,0.513275,-8.768029,-6.126233
85.901849,-0.131387,-9.483023,-5.226729
85.935208,-0.693445,-9.316321,-5.960877
85.968613,0.592885,-7.686410,-7.991981
86.002029,1.205374,-6.656118,-8.147759
86.035166,0.854012,-7.820640,-5.897877
86.068514,-0.524947,-8.379107,-5.538435
86.101861,-0.386677,-7.629995,-5.289130
86.135184,0.986446,-6.752638,-5.981378
86.168537,1.714459,-6.668239,-6.179206
86.201916,1.569306,-7.447281,-5.673563
86.235226,0.937064,-8.108253,-5.217750
86.268534,0.659028,-7.937062,-5.070053
86.301864,0.414661,-7.461347,-5.172708
86.335278,0.847129,-7.419148,-5.504765
86.368533,1.110650,-7.887829,-5.699601
86.401886,1.330775,-8.357559,-5.123326
86.435202,1.620783,-8.414423,-4.741437
86.468545,1.443157,-8.341397,-5.760505
86.501835,0.770661,-8.984263,-6.518746
86.535200,0.474667,-9.298813,-6.166636
86.568553,2.473149,-8.226471,-8.022358
86.601854,3.122599,-7.128242,-9.620545
86.635269,1.658044,-6.562292,-4.941958
86.668522,0.773953,-6.967825,-3.828016
86.701855,0.833212,-7.457756,-4.311363
86.735207,1.382102,-6.950316,-6.002029
86.768608,1.358908,-6.922632,-5.682092
86.801865,1.541771,-7.518361,-5.118387
86.835199,1.410235,-8.143569,-5.625378
86.868566,0.987344,-8.182626,-6.089869
86.901854,0.621467,-8.026548,-6.176662
86.935266,0.226859,-8.167662,-5.332227
86.968598,0.044594,-8.376563,-5.192161
87.001859,-0.221322,-8.476375,-5.620739
87.035202,-0.733101,-9.146027,-6.202999
87.068535,-0.874962,-9.243594,-5.504915
87.101854,-1.310124,-8.144467,-6.471758
87.135278,0.150242,-6.615864,-7.926437
87.168516,0.430373,-7.522850,-7.353903
87.201864,0.057313,-8.070543,-6.614817
87.235267,1.060520,-7.508484,-6.254327
87.268512,1.626170,-7.135574,-5.415429
87.301859,1.535037,-6.957798,-5.230171
87.334761,1.427294,-7.268906,-5.038328
87.368512,1.268074,-7.977316,-5.091302
87.401855,1.123220,-8.158384,-5.958184
87.435184,0.588246,-7.922098,-6.416989
87.468511,0.755098,-7.811063,-6.118451
87.501858,1.088353,-7.921798,-6.021183
87.535281,1.089550,-8.000959,-5.619691
87.568521,1.212108,-7.954720,-6.176513
87.601860,1.157787,-7.745220,-6.603444
87.635182,0.691949,-7.688056,-6.805911
87.668517,0.354803,-8.260291,-6.331243
87.701850,0.301979,-8.305932,-5.703042
87.735270,1.311920,-7.226856,-6.769398
87.768580,1.809183,-6.362519,-8.194298
87.801862,0.935867,-6.144639,-7.042796
87.835273,0.042798,-6.787056,-3.942942
87.868552,0.382338,-6.898989,-5.249475
87.901859,0.660674,-7.123902,-6.630380
87.935204,0.568494,-7.348067,-5.455383
87.968590,0.725768,-7.322478,-5.390289
88.002055,0.436808,-7.688206,-5.707981
88.035252,-0.536769,-8.182476,-5.593504
88.068621,-1.058873,-7.967739,-6.106779
88.101895,-0.728612,-8.205372,-6.594615
88.135218,-0.319039,-8.753963,-7.256635
88.168551,-0.996173,-9.464767,-6.804115
88.201854,-1.156890,-10.086832,-6.022231
88.235170,-2.332036,-8.601926,-8.113790
88.268527,-0.962204,-6.667790,-9.155155
88.301846,-0.874813,-6.381075,-7.823184
88.335209,-1.061417,-7.302277,-5.249475
88.368527,-1.637692,-7.365276,-5.082772
88.401854,-1.367437,-6.926523,-4.893773
88.435201,-0.298837,-6.652976,-5.323697
88.468510,0.218030,-6.662254,-5.088010
88.501902,0.261726,-7.062549,-4.291610
88.535176,-0.414511,-7.788317,-4.937918
88.568318,-0.774702,-7.863886,-5.723394
88.601862,-0.740134,-7.665161,-6.270488
88.635308,-0.478409,-7.300930,-6.564088
88.668499,-0.252897,-7.636729,-5.631214
88.701861,-0.011971,-7.961304,-5.419020
88.735235,0.205160,-8.065306,-5.415578
88.768516,0.734597,-9.079137,-5.926759
88.801866,0.192291,-10.030567,-6.133565
88.835191,-0.281179,-9.575054,-5.102226
88.868531,1.412031,-7.831863,-8.150752
88.901857,1.387040,-6.776581,-9.861769
88.935238,0.184061,-6.771942,-5.099233
88.968515,-0.342084,-7.147246,-4.150048
89.001852,-0.257835,-7.144702,-4.932830
89.035223,-0.110586,-7.077363,-5.237802
89.068600,-0.029330,-7.217579,-4.769121
89.101851,-0.095023,-7.411217,-4.773610
89.135222,-0.313652,-7.981207,-5.277308
89.168514,-0.771110,-8.139230,-6.138952
89.201878,-1.542519,-7.862240,-6.081938
89.235296,-1.253858,-7.781433,-6.423423
89.268517,-0.989290,-7.935266,-6.847212
89.301861,-1.454978,-8.289172,-6.849307
89.335255,-1.452734,-9.420323,-5.252767
89.368594,-1.713262,-9.333680,-6.494055
89.401857,-1.002009,-7.809865,-8.144916
89.435250,-0.928086,-5.526164,-8.050192
89.468588,-1.027448,-6.001430,-6.591173
89.501858,-1.497776,-7.081852,-6.086727
89.535209,-1.186070,-6.314932,-7.445335
89.568620,-0.353008,-5.602931,-7.194384
89.601849,-0.001945,-5.757213,-5.945314
89.635395,0.177776,-6.724655,-5.362455
89.668634,-0.284471,-7.342830,-6.050064
89.701865,-0.788020,-7.750307,-6.214821
89.735201,-0.290008,-7.815103,-6.716724
89.768523,0.328317,-7.204709,-7.281775
89.801882,0.560862,-6.772840,-6.822372
89.835241,0.985399,-7.093824,-6.412350
89.868519,0.896960,-8.519921,-7.180766
89.901933,0.360939,-10.022785,-7.340884
89.935271,1.193851,-8.724184,-6.809353
89.968532,1.847941,-6.749495,-9.929857
90.001876,1.534289,-6.030461,-8.938622
90.035239,0.050729,-6.819528,-4.845888
90.068527,-0.520757,-6.994760,-4.281135
90.101857,-0.327718,-6.620354,-5.607720
90.135189,0.125102,-6.626040,-6.030162
90.168585,0.867031,-6.990570,-6.277073
90.201853,0.818846,-7.344625,-6.409956
90.235239,0.220873,-7.851616,-6.284106
90.268520,-0.404635,-7.912820,-5.933492
90.301846,-0.820941,-8.057674,-5.622235
90.335229,-0.639724,-8.074584,-5.792828
90.368659,-0.546346,-7.834856,-6.123090
90.401911,-0.654389,-7.780236,-6.515304
90.435071,-1.281841,-9.148571,-6.305355
90.468525,-1.577835,-10.006773,-5.891144
90.501593,-1.373872,-8.599831,-7.146199
90.535210,-0.650797,-5.942920,-8.905701
90.568514,-0.457907,-6.188334,-6.306103
90.601881,-1.047201,-7.349414,-5.368890
90.635232,-1.090598,-7.240474,-6.778077
90.668595,-0.242871,-6.407262,-6.723308
90.701855,0.217431,-6.233976,-5.707232
90.735186,0.655286,-6.270937,-4.924151
90.768611,0.563705,-6.993862,-5.248128
90.801872,0.110137,-7.714543,-5.245285
90.835270,0.091282,-7.958610,-5.223886
90.868487,0.317842,-7.586000,-6.100943
90.901855,0.534375,-7.016309,-6.797232
90.935176,0.825281,-7.095320,-7.024689
90.968513,1.003206,-7.934368,-7.486637
91.001857,0.934670,-9.215162,-6.789899
91.035287,0.619372,-9.196607,-5.785496
91.068535,1.672709,-8.030140,-7.765421
91.101889,1.901812,-7.271300,-9.159794
91.135187,0.729809,-7.046387,-6.075055
91.168548,-0.247809,-7.076914,-4.495124
91.201918,-0.137223,-6.889561,-5.010944
91.235237,0.810317,-6.697120,-5.816472
91.268604,0.768417,-7.219075,-4.350719
91.301892,0.453418,-7.265165,-3.929324
91.335176,0.137372,-7.890224,-4.924151
91.368533,-0.454915,-8.192951,-5.245135
91.401867,-1.200436,-7.903991,-5.539034
91.435210,-0.882893,-7.800438,-6.338127
91.468515,-0.675488,-8.369979,-7.060454
91.501860,-1.185771,-9.348494,-6.362968
91.535210,-1.363995,-10.360829,-6.332291
91.568520,-0.995275,-9.346100,-8.143868
91.601871,-0.271752,-6.998950,-9.567871
91.635060,-0.584206,-6.375538,-6.531615
91.668517,-1.209115,-7.040102,-5.975841
91.701971,-1.780901,-6.977402,-6.110819
91.735184,-0.751507,-6.484927,-6.240261
91.768532,0.147249,-6.128328,-5.750778
91.801864,0.732951,-6.281412,-4.880006
91.835171,0.564304,-7.427528,-4.837807
91.868532,0.089486,-7.753151,-5.643484
91.901982,-0.320386,-7.699728,-6.277372
91.935237,-0.298538,-7.307514,-6.663301
91.968571,0.087391,-7.107142,-6.689638
92.001857,0.660973,-7.394307,-6.943433
92.035200,0.718735,-8.475178,-6.705800
92.068588,0.164308,-9.616954,-5.268030
92.101918,1.463358,-10.360380,-5.068556
92.135301,2.753430,-7.662916,-11.607803
92.168524,0.784728,-6.482383,-9.479432
92.201917,-0.798944,-6.697869,-5.875281
92.235287,-1.339604,-6.613620,-4.051882
92.268520,-0.136325,-6.404718,-5.424407
92.301860,0.610244,-6.723607,-5.943818
92.335236,1.201783,-7.430072,-3.857945
92.368546,1.187566,-7.840393,-4.068343
92.401865,0.651695,-8.114987,-4.143164
92.435172,-0.518214,-7.896808,-4.638782
92.468539,-0.880200,-7.863737,-4.276646
92.501822,-0.573282,-8.495529,-5.601884
92.535167,-0.324875,-8.929494,-6.450808
92.568532,-1.021762,-9.535398,-6.681109
92.601899,-0.455214,-9.828698,-5.209370
92.635176,-0.908333,-10.369957,-6.134762
92.668525,-0.432917,-9.100087,-7.690750
92.701958,-0.760186,-6.773289,-7.263220
92.735194,-1.009192,-6.730491,-5.742099
92.768570,-1.386442,-7.245562,-6.014150
92.801848,-1.309226,-6.909613,-6.427314
92.835233,-0.727714,-6.183695,-6.268094
92.868410,-0.001796,-5.877077,-5.603679
92.901739,0.745222,-6.669436,-4.917118
92.935180,0.499209,-7.607249,-5.497882
92.968520,-0.034867,-8.182626,-5.754520
93.001874,-0.388772,-8.270915,-5.815873
93.034886,0.176279,-7.838896,-6.084632
93.068503,0.661871,-7.400891,-6.391250
93.101868,0.756146,-7.815253,-6.687543
93.135190,0.680426,-8.801848,-5.136345
93.168511,1.008145,-9.947964,-4.118623
93.201855,2.606182,-8.510194,-7.730255
93.235185,1.113044,-5.969706,-8.963762
93.268519,-0.241224,-6.196116,-5.901170
93.301920,-0.416606,-7.623410,-5.452839
93.335195,0.430822,-7.245711,-6.924129
93.368525,1.033135,-7.315595,-7.152484
93.401843,1.326585,-7.562805,-5.272220
93.435309,1.134294,-7.763626,-4.686368
93.468511,0.750459,-8.161676,-4.257491
93.501898,-0.241075,-8.035228,-4.717943
93.534631,-1.121724,-7.703170,-4.985205
93.568500,-0.996023,-7.757041,-5.314420
93.601966,-0.484993,-8.314461,-6.678116
93.635195,-0.857304,-9.182391,-6.649384
93.668534,-0.083950,-9.897085,-5.065114
93.701840,-0.355103,-10.699770,-6.308947
93.735199,0.046988,-8.153895,-8.697697
93.768569,-0.405682,-6.611974,-6.953309
93.801854,-0.823036,-7.237930,-5.729978
93.835183,-1.026700,-7.710054,-7.228203
93.868518,-0.787571,-7.135874,-6.847961
93.901864,0.102805,-6.280814,-5.335070
93.935228,0.695091,-6.166786,-4.764931
93.968522,1.048548,-6.734382,-5.146221
94.001848,0.307816,-7.796398,-5.113898
94.035232,-0.106546,-8.046900,-5.199344
94.068525,-0.104600,-7.663814,-5.687031
94.101864,0.385929,-7.215334,-6.110969
94.135251,0.979712,-7.655135,-6.362668
94.168460,1.230963,-8.821302,-6.451257
94.201852,0.831566,-10.054959,-4.473426
94.235183,2.297468,-9.890950,-5.677304
94.268593,3.073367,-7.914316,-10.666400
94.301858,0.725768,-6.597309,-7.280279
94.335281,-0.446385,-7.160864,-4.620825
94.368472,-0.347621,-7.504444,-4.991340
94.401856,0.787272,-7.211892,-6.193422
94.435224,1.114092,-7.310507,-5.164926
94.468532,1.094189,-7.738935,-4.233998
94.501853,0.929133,-8.327031,-4.071785
94.535261,0.242422,-8.225573,-4.464597
94.568524,-0.551883,-7.580014,-4.932082
94.601892,-0.924344,-7.075717,-6.034950
94.635258,-0.914767,-7.506389,-7.185854
94.668574,-1.165270,-8.973040,-6.438388
94.701866,-0.871820,-10.031764,-6.431803
94.735182,-0.115973,-9.115051,-8.106158
94.768589,0.226859,-7.446383,-8.098377
94.801859,-0.336397,-7.010323,-5.914637
94.835209,-0.979862,-7.586598,-5.942920
94.868527,-1.477724,-7.440996,-5.698104
94.901941,-0.495617,-6.799925,-5.441616
94.935209,0.073026,-6.560048,-5.148765
94.968538,0.278934,-6.591622,-4.983559
95.001851,-0.249006,-7.355250,-5.167021
95.035189,-0.824084,-7.752702,-5.410640
95.068574,-0.985848,-7.663814,-5.595599
95.101851,-0.671448,-7.185256,-5.350035
95.135183,-0.242721,-7.313649,-5.354674
95.168546,0.275193,-7.812110,-5.507758
95.201898,0.453418,-9.535997,-6.040038
95.235143,-0.133332,-10.627193,-6.052309
95.268356,1.109902,-9.786200,-7.151436
95.301835,2.415836,-7.808519,-9.917137
95.335183,1.460814,-7.082900,-8.099424
95.368445,0.558019,-6.618109,-5.242142
95.401837,0.063449,-6.843471,-4.462203
95.435225,1.214053,-7.405081,-5.518233
95.468456,1.644127,-7.597073,-6.080143
95.501835,1.395869,-7.451471,-5.296762
95.535188,1.208217,-7.597073,-4.896766
95.568485,0.931677,-7.965344,-5.166722
95.601838,0.077964,-8.078474,-5.110456
95.635316,-0.260828,-8.061714,-5.206677
95.668468,-0.327868,-8.319100,-5.217152
95.701847,-0.296443,-8.520969,-5.591558
95.734742,-1.028346,-8.770423,-7.303773
95.768490,-0.971033,-9.220549,-5.061822
95.801837,-1.635298,-9.691925,-6.448713
95.835252,-0.281478,-7.778889,-9.047113
95.868507,0.178374,-6.422077,-8.605966
95.901852,0.365578,-7.125548,-6.060988
95.935239,-0.330861,-7.527938,-5.678351
95.968598,-0.067339,-7.289557,-4.896766
96.001847,0.856856,-6.730042,-5.863011
96.035197,1.043909,-6.410704,-6.433001
96.068539,0.432468,-6.682605,-6.057247
96.101865,-0.090833,-7.406129,-5.342104
96.135202,-0.311557,-7.491425,-5.016032
96.168522,-0.231947,-7.336545,-5.510452
96.201847,0.069883,-7.432616,-5.682092
96.234619,0.426931,-7.895012,-5.610264
96.268547,0.838300,-8.309523,-5.655306
96.301943,1.084911,-8.897770,-6.490164
96.335163,0.726068,-9.628177,-5.895483
96.368517,-0.142011,-9.197804,-5.205031
96.401903,2.069562,-8.430285,-7.727262
96.435213,2.247487,-7.456858,-10.653381
96.468539,1.087904,-7.027083,-5.610563
96.501859,0.416307,-7.015411,-5.408844
96.535178,0.543354,-7.059107,-5.936036
96.568513,0.772008,-7.021995,-6.069668
96.601858,0.993330,-6.765358,-5.139786
96.635202,1.029843,-6.989373,-5.264738
96.668512,0.272799,-7.332055,-5.204881
96.701861,-0.624161,-7.475114,-4.714351
96.735340,-0.580315,-7.540358,-4.918464
96.768521,-0.151588,-8.054532,-5.110456
96.801857,0.308264,-8.887444,-5.384453
96.835334,0.380841,-8.832525,-6.201503
96.868517,0.215935,-8.974836,-6.630829
96.901979,-0.412566,-10.209989,-4.857111
96.935214,-1.548356,-10.151778,-6.209883
96.968514,-1.718949,-8.526805,-7.643612
97.001851,0.331160,-7.529734,-7.629695
97.035239,0.191244,-7.588992,-6.690686
97.068511,-0.529437,-7.175529,-6.566183
97.101855,-0.901000,-6.453651,-7.214885
97.135209,0.275193,-5.916882,-7.270403
97.168512,1.481465,-6.115608,-6.745605
97.201847,2.086322,-6.312688,-4.923253
97.235195,1.702189,-6.932509,-3.926032
97.268560,1.114092,-7.895760,-3.777437
97.301959,1.070546,-8.153595,-5.101178
97.335206,1.166766,-8.196692,-5.136345
97.368507,1.422655,-7.866580,-5.065264
97.401986,1.451986,-7.602610,-5.499827
97.434653,1.405596,-8.072788,-5.043566
97.468510,1.890439,-8.977230,-5.272071
97.501922,1.840159,-9.989864,-5.682242
97.535190,1.576040,-9.271278,-5.126917
97.568515,3.024434,-8.421306,-7.009725
97.601852,3.198019,-7.114624,-8.293062
97.635239,1.523515,-6.864870,-4.515626
97.668525,0.682521,-6.958547,-3.811855
97.701851,0.658279,-6.842723,-5.724890
97.735187,0.904143,-6.815638,-6.375388
97.768750,1.107358,-6.956601,-6.153318
97.801849,0.787421,-7.326070,-5.830388
97.835231,0.460900,-7.746566,-6.302662
97.868568,-0.090833,-7.704816,-6.704902
97.901837,-0.706015,-7.293448,-5.861664
97.935192,-0.559365,-7.722324,-5.619392
97.968614,-0.249604,-8.331221,-5.909400
98.001845,-0.561909,-9.508612,-5.800610
98.035185,-0.224315,-9.852342,-5.264888
98.068641,-0.444589,-8.872330,-6.803816
98.101839,0.397751,-6.338875,-8.435223
98.135216,0.567596,-6.685448,-6.761916
98.168560,0.063299,-7.855058,-5.454186
98.201836,0.433067,-7.429024,-6.455597
98.235189,1.518577,-7.086940,-6.652527
98.268610,2.071358,-6.952411,-6.733783
98.301844,2.168925,-7.392511,-6.604791
98.335191,1.654602,-7.876008,-5.817669
98.368642,1.012185,-7.787868,-5.322800
98.401855,0.597375,-6.917993,-6.369103
98.435242,0.683569,-7.010024,-6.530269
98.468663,0.742379,-7.380989,-6.071463
98.501850,0.828872,-7.784576,-5.559834
98.535187,0.788319,-8.010537,-5.334472
98.568660,0.911326,-7.813606,-5.973597
98.601826,0.784877,-7.461796,-7.050876
98.635201,0.717538,-7.665460,-6.970817
98.668534,0.514921,-7.545297,-6.807407
98.701865,1.543268,-7.120311,-6.633672
98.735206,2.337124,-6.782417,-7.116420
98.768558,3.084590,-6.651030,-7.579116
98.801861,3.032065,-7.114325,-6.756978
98.835187,2.629077,-7.464489,-6.610328
98.868573,2.078989,-7.451471,-7.431418
98.901856,1.578434,-7.084995,-7.443689
98.935224,1.712664,-7.068983,-6.725852
98.968506,1.962268,-7.194085,-6.302512
99.001915,1.687673,-7.818096,-5.608767
99.035283,1.133994,-8.068149,-5.364999
99.068516,0.650049,-7.438302,-5.743895
99.101888,0.532579,-7.341633,-5.963421
99.135222,0.711403,-7.771258,-5.357217
99.168520,0.784578,-8.197740,-5.134250
99.201917,0.480354,-8.587410,-5.155948
99.235319,0.214738,-9.239255,-4.633993
99.268528,-0.014515,-9.600044,-5.893687
99.301855,-0.130489,-8.985161,-7.147396
99.335228,-0.303476,-8.365789,-7.075567
99.368640,-0.421095,-7.658576,-6.675422
99.401871,-0.979263,-8.054532,-5.348239
99.435193,-1.416969,-7.913269,-4.578476
99.468644,-1.606866,-7.876008,-4.754605
99.501878,-0.686711,-7.610990,-5.316964
99.535192,-0.109539,-7.499356,-5.424856
99.568585,-0.009128,-7.454014,-5.100131
99.601975,-0.263372,-7.733697,-4.736050
99.635195,-0.212194,-8.125911,-4.725275
99.668575,-0.137821,-8.551645,-4.537174
99.701964,-0.000449,-8.536681,-4.882849
99.735239,0.285369,-8.213153,-5.410939
99.768503,0.755398,-8.288723,-6.726151
99.801702,1.016525,-9.044120,-6.104085
99.835188,0.179721,-10.057054,-4.713902
99.868510,2.120740,-9.812088,-6.903478
99.901898,2.050408,-8.453330,-9.064771
99.934626,1.014729,-7.764973,-6.493307
99.968474,0.018406,-7.187201,-4.869531
100.001824,-0.436957,-6.922483,-4.833018
100.035149,-0.691949,-6.741265,-5.468851
100.068548,-0.838150,-6.749346,-4.839453
100.101809,-0.413463,-7.145750,-4.712556
100.135352,-0.321283,-7.681322,-5.279254
100.168487,-1.089700,-8.617638,-5.030547
100.201847,-1.586066,-8.822499,-5.020970
100.235158,-1.200436,-8.704132,-5.326241
100.269347,-0.649301,-8.582322,-6.786607
100.301989,-0.799842,-8.636643,-6.532064
100.335288,-1.344243,-9.373784,-5.986017
100.368608,-1.808136,-8.937874,-5.243190
100.402003,-1.233956,-7.601562,-5.961775
100.435157,-1.096135,-6.713432,-6.116655
100.468464,-1.617491,-7.231046,-6.331842
100.501926,-2.140792,-7.060753,-6.360125
100.535332,-1.948800,-6.570822,-5.969856
100.568519,-1.081021,-6.782267,-4.693850
100.601745,-0.475266,-7.455810,-4.229359
100.635223,-0.407927,-7.894414,-4.264076
100.668537,-1.285882,-8.205521,-3.996365
100.702060,-1.720295,-8.153895,-3.863931
100.735203,-1.755312,-7.792208,-3.834451
100.768582,-1.477275,-7.585251,-4.245819
100.801951,-1.072192,-7.965344,-5.115394
100.835241,-0.754051,-9.092305,-5.611910
100.868509,0.423938,-8.950444,-5.144126
100.901960,0.702873,-9.850995,-4.111590
100.935258,2.048013,-10.939049,-4.913825
100.968546,2.317520,-10.032811,-6.651779
101.001869,1.063512,-8.949696,-5.116741
101.035168,0.454765,-8.121721,-4.526250
101.068524,-0.105049,-7.987192,-4.850227
101.101460,0.424836,-7.833958,-5.773075
101.135205,0.828124,-7.798343,-5.942770
101.168006,0.959810,-8.154792,-5.277757
101.201841,0.630595,-8.306830,-4.746974
101.235216,-0.007781,-8.179334,-4.381097
101.268528,-0.790414,-8.046152,-3.890717
101.301854,-0.766322,-8.350376,-3.579908
101.335201,-0.173586,-8.778803,-4.170100
101.368517,0.145154,-8.980971,-4.868035
101.401902,-0.455214,-9.355078,-5.323398
101.435260,-0.981807,-10.085785,-3.213433
101.468217,-1.853328,-10.548331,-5.309182
101.501868,-0.796699,-9.254818,-7.110285
101.535201,0.083501,-8.044954,-7.781882
101.568502,-0.408226,-8.066204,-5.880369
101.601980,-1.328530,-8.060966,-5.329982
101.635200,-1.660139,-7.770060,-5.634506
