time_tick,gyr_X_value,gyr_Y_value,gyr_Z_value
-0.004181,0.062812,-0.056085,0.024209
0.035807,0.320961,0.177069,0.006213
0.065798,0.179188,-0.009486,-0.142833
0.095789,0.198107,0.017597,-0.208213
0.135778,0.303253,0.228853,-0.152925
0.165769,0.104427,0.183677,-0.113775
0.195760,0.068562,0.111129,-0.090800
0.235748,0.180744,0.050603,-0.105977
0.265739,0.262893,-0.038944,-0.095105
0.295730,0.187116,-0.184193,-0.018346
0.335718,0.059194,-0.344082,0.173089
0.365709,0.075988,-0.379123,0.275008
0.395700,0.190958,-0.362662,0.270316
0.435689,0.233749,-0.212305,0.110534
0.465680,0.224816,0.084254,-0.026429
0.495675,0.296625,0.617464,-0.084486
0.535663,0.510188,0.285167,-0.020937
0.565654,0.338449,-0.372627,0.030333
0.595645,-0.075169,-0.583083,0.131222
0.635633,-0.491345,0.177306,0.240806
0.665624,-0.594482,0.377041,0.048025
0.695615,-0.168051,0.277832,-0.203720
0.735604,-0.089708,-0.541725,-0.331749
0.765595,-0.368135,-0.840001,-0.333146
0.795586,-0.300262,-0.154279,-0.314820
0.835574,-0.344688,0.727826,-0.188982
0.865565,-0.176994,0.698858,-0.180101
0.895556,-0.075362,0.271838,-0.166964
0.935544,0.015285,-0.399139,-0.149917
0.965535,0.115011,-0.553865,-0.091002
0.995527,0.117529,-0.363462,-0.106612
1.035515,0.104584,0.328099,-0.140761
1.065506,0.049567,0.512786,-0.047614
1.095497,0.139758,0.452676,0.004641
1.135485,0.207700,0.369323,0.150592
1.165476,0.366726,0.401448,0.248672
1.195467,0.166884,0.508386,0.251912
1.235455,0.172956,-0.073207,0.442187
1.265446,0.225013,-0.698381,0.474084
1.295438,0.116756,-0.794270,0.576497
1.335426,-0.112881,-0.288148,0.609932
1.365417,-0.239996,0.306109,0.507357
1.395408,0.148353,0.466920,0.407867
1.435396,0.545444,0.044213,0.313202
1.465387,0.229797,-0.016169,0.323514
1.495374,0.262502,0.231248,0.349515
1.535362,0.514692,0.288293,0.406042
1.565353,0.366330,-0.014868,0.358987
1.605341,0.306929,-0.009609,0.255386
1.635333,0.320992,0.193581,0.182851
1.665324,0.221533,0.151074,0.163084
1.705312,-0.204063,0.033491,0.057701
1.735303,-0.055556,0.413368,-0.154522
1.765294,0.638465,0.601339,-0.035648
1.805282,0.297141,-1.116215,-0.186611
1.835273,-0.619335,-1.438510,-0.737109
1.865264,-1.064299,-0.004075,-0.772539
1.905252,-0.028798,1.511488,-0.181177
1.935243,-0.023238,0.940993,-0.059125
1.965235,-0.234759,-0.370731,-0.271561
2.005223,-0.312023,-0.820165,-0.279632
2.035214,-0.167662,-0.268632,-0.008887
2.065205,0.033227,0.125969,0.158416
2.105193,0.109244,-0.046839,0.146802
2.135184,0.140931,-0.181967,0.212502
2.165175,0.122415,-0.044385,0.255032
2.205163,0.351563,0.314748,0.301207
2.235154,0.355539,0.405857,0.371818
2.265145,0.089262,0.379912,0.468511
2.305133,0.302337,0.217755,0.752574
2.335125,1.001219,-0.499449,0.872816
2.365116,0.260013,-0.989802,0.718043
2.405104,-0.673394,0.423763,0.512252
2.435095,0.405661,1.283728,0.370466
2.465086,0.969344,0.920464,0.186597
2.505073,0.242838,-0.122387,0.035788
2.535064,0.015970,-0.170957,0.205432
2.565055,0.259071,0.157037,0.302746
2.605043,0.395582,0.339324,0.262701
2.635034,0.259409,0.205422,0.311224
2.665025,0.169114,0.047001,0.326368
2.705013,0.213325,0.041738,0.183288
2.735005,-0.074437,0.057393,0.070532
2.764996,-0.304212,0.180477,-0.108783
2.804984,0.371823,0.187803,-0.156354
2.834975,0.427322,-0.285865,-0.345564
2.864966,-0.272973,-0.876926,-0.557183
2.904954,-0.650127,-0.012119,-0.733518
2.934945,-0.069753,0.684575,-0.840567
2.964936,-0.042277,0.610871,-0.995095
3.004924,-0.450268,-0.255566,-0.895338
3.034915,-0.732023,-0.527935,-0.661168
3.064906,-0.820889,-0.298948,-0.413621
3.104895,-0.507206,0.102498,-0.153436
3.134886,-0.395458,0.301032,0.012567
3.164877,-0.325175,0.419675,0.142051
3.204865,-0.047915,0.277359,0.281515
3.234856,0.394694,-0.167634,0.388530
3.264847,0.165533,-0.364311,0.284561
3.304835,-0.156638,0.248330,0.065714
3.334826,0.558751,0.426969,0.099164
3.364817,0.800454,-0.236328,0.353099
3.404805,-0.506250,-0.301023,0.223038
3.434796,-0.099089,0.519001,0.126782
3.464787,0.932719,0.870464,0.132890
3.504776,0.788914,0.141838,0.155092
3.534768,0.131359,-0.535227,0.008613
3.564759,-0.163986,-0.543051,-0.093309
3.604747,0.293986,-0.038201,-0.124428
3.634738,0.250178,0.207097,-0.085709
3.664729,-0.058493,0.186856,0.010620
3.704717,-0.164484,0.062005,0.048103
3.734708,-0.111626,0.091900,-0.157861
3.764699,-0.357775,0.340108,-0.363800
3.804687,-0.364626,0.633981,-0.538637
3.834678,0.277278,0.524780,-0.383353
3.864669,0.152065,-0.261900,-0.277735
3.904657,-1.133005,-0.781052,-0.559895
3.934648,-0.551643,0.081342,-0.570124
3.964639,0.163239,0.759069,-0.356502
4.004628,0.026548,0.137582,-0.284478
4.037120,-0.232192,-0.750838,-0.395458
4.077108,-0.516655,-0.516901,-0.332234
4.107099,-0.327041,0.058740,-0.166724
4.137090,-0.120847,0.257586,-0.035351
4.177078,-0.219986,0.174426,0.121847
4.207069,-0.240404,0.347335,0.239461
4.237060,0.051096,0.493562,0.349854
4.277048,0.165657,0.054787,0.284400
4.307039,0.215946,-0.088957,0.119069
4.337030,0.081451,0.224631,-0.012800
4.377018,0.686077,0.348543,0.029815
4.407010,1.053392,-0.541589,0.317482
4.437001,-0.370354,-0.811019,0.333708
4.476989,-0.375565,0.559323,0.485623
4.506980,0.534467,0.923199,0.575772
4.536970,0.550871,0.202307,0.374738
4.566961,0.112370,-0.535207,0.122658
4.606949,0.166121,-0.511912,0.246620
4.636940,0.285299,-0.147812,0.360513
4.666931,0.418183,-0.020617,0.286142
4.706919,0.214292,-0.059457,0.172831
4.736910,0.057535,-0.061311,0.139603
4.766901,0.219104,-0.085263,0.030275
4.806889,-0.157399,0.107106,-0.223637
4.836880,-0.584749,0.506686,-0.457854
4.866871,-0.033069,0.965530,-0.428145
4.906859,0.318678,0.538382,0.132632
4.936850,0.212236,-0.192680,0.232296
4.966842,-0.986381,0.177819,-0.137959
5.006830,-0.854128,0.810094,-0.380404
5.036821,-0.390758,0.660659,-0.450180
5.066812,-0.405428,-0.071433,-0.743109
5.106800,-0.671639,-0.703132,-1.042025
5.136791,-0.624704,-0.635812,-0.898043
5.166782,-0.503772,-0.330910,-0.570276
5.206770,-0.564221,-0.236199,-0.257188
5.236761,-0.595126,-0.219662,-0.127660
5.266752,-0.489524,-0.085911,-0.044820
5.306740,-0.430232,-0.034010,-0.050694
5.336731,-0.321770,0.059874,-0.151874
5.366722,-0.191517,0.306104,-0.300659
5.406710,0.003490,0.503028,-0.199886
5.436701,0.237339,0.116267,0.087582
5.466692,0.656688,-0.863930,0.211867
5.506680,-0.494307,-0.700888,0.107245
5.536672,-0.328551,0.435430,0.335288
5.566663,0.345285,0.859005,0.349698
5.606651,0.602147,-0.127224,0.066833
5.636642,0.062526,-0.718352,-0.135368
5.666633,0.039690,-0.406523,-0.137167
5.706621,0.250683,0.207196,0.133379
5.736612,0.323118,0.090494,0.111156
5.766603,0.099868,-0.140124,0.138724
5.806591,-0.192992,0.062084,0.262638
5.836582,-0.112061,0.272559,0.241466
5.866573,-0.058481,0.268012,0.158194
5.906561,-0.126656,0.156324,0.084708
5.936552,-0.226017,0.228600,-0.057291
5.966543,-0.375301,0.606158,-0.213571
6.006531,0.352368,0.603688,-0.208162
6.036522,0.297725,-0.421021,-0.430777
6.066513,-0.642073,-0.792194,-0.850753
6.106501,-0.309958,0.696642,-0.742287
6.136492,0.355251,1.164325,-0.403322
6.166483,0.385404,0.312608,-0.312869
6.206472,-0.196947,-1.145772,-0.476629
6.236463,-0.588698,-1.048286,-0.374881
6.266454,-0.599438,-0.280887,-0.040064
6.306442,-0.123607,0.267047,0.136788
6.336433,-0.125568,0.070594,0.106555
6.366424,-0.177095,-0.164079,0.104651
6.406412,-0.082821,-0.034438,0.054297
6.436403,0.000381,0.201466,0.041318
6.466394,0.148736,0.368338,0.069485
6.506382,0.298575,0.387934,0.079177
6.536373,0.215051,0.364545,0.152722
6.566364,0.172302,0.126620,0.360068
6.606352,0.888560,-0.663303,0.497224
6.636343,0.753964,-1.141496,0.422649
6.666334,-0.527022,-0.354823,0.447977
6.706322,-0.000752,1.108642,0.747101
6.736313,0.875941,0.845541,0.717977
6.766304,0.576307,-0.283795,0.406332
6.806292,-0.152213,-0.767136,0.213927
6.836283,0.169138,-0.172089,0.299012
6.866274,0.482903,0.132745,0.293743
6.906262,0.418017,0.007245,0.245127
6.936253,0.210086,-0.010622,0.277468
6.966245,0.110525,0.110090,0.233646
7.006233,0.264022,0.096217,0.136821
7.036224,0.023271,0.134145,0.071234
7.066215,-0.180411,0.338893,-0.041612
7.106203,0.271662,0.588779,-0.056342
7.136194,0.425081,0.249594,-0.000513
7.166185,-0.098334,-0.485431,-0.182292
7.206173,-0.752576,-0.080393,-0.396005
7.236164,-0.133467,0.780799,-0.309869
7.266155,0.272547,0.801592,-0.212697
7.306143,0.264347,-0.368805,-0.258961
7.336134,-0.158832,-0.956246,-0.277147
7.366125,-0.198505,-0.692649,-0.131547
7.406113,0.151647,0.086619,0.195350
7.436104,0.183146,0.114492,0.324964
7.466095,0.189142,-0.166692,0.432912
7.506083,0.300047,-0.332339,0.480877
7.536074,0.404753,-0.144173,0.428135
7.566065,0.618924,0.182146,0.417721
7.606053,0.836436,0.378471,0.428952
7.636044,0.866519,0.283150,0.534406
7.666035,0.706413,0.148498,0.809977
7.706023,0.838501,-0.479635,1.161942
7.736014,1.083221,-1.053095,1.152195
7.766005,0.488855,-0.816603,1.183859
7.805993,0.268155,0.486150,1.119794
7.835984,1.052695,0.810730,0.985494
7.865976,1.396986,0.091966,0.802729
7.905964,0.803391,-0.868579,0.696592
7.935955,0.602810,-0.530287,0.782866
7.965946,0.791544,0.237899,0.782546
8.005934,1.019449,0.248585,0.730768
8.037175,0.826537,-0.219909,0.732819
8.077163,0.734644,-0.278925,0.775979
8.107154,0.760357,-0.060680,0.776458
8.137146,0.712965,-0.014630,0.733779
8.177134,0.367394,0.006045,0.655500
8.207125,0.367690,0.281144,0.480486
8.237116,0.667229,0.665827,0.373720
8.277104,0.954720,0.391082,0.407578
8.307095,0.670189,-0.287143,0.221109
8.337086,0.343324,-0.081422,0.167551
8.377074,0.734654,0.809734,0.552433
8.407065,1.163782,0.575877,0.731522
8.437056,1.070118,-0.430334,0.647557
8.477044,0.409207,-0.927553,0.668419
8.507034,0.521092,-0.308934,0.745906
8.537023,0.995665,0.316184,0.665376
8.567013,1.109393,0.329760,0.609909
8.597004,1.023733,-0.048211,0.667332
8.636992,0.793980,-0.196596,0.709007
8.666983,0.799121,0.123263,0.720416
8.696974,0.957552,0.403751,0.767052
8.736962,1.044668,0.224631,0.753647
8.766953,0.990816,0.055175,0.735861
8.796944,0.989393,0.164311,0.738462
8.836932,1.141618,0.307491,0.739466
8.866923,1.170473,0.281240,0.778550
8.896914,1.084744,0.149126,0.932813
8.936902,1.153017,-0.252255,1.097510
8.966894,1.326609,-0.610332,1.099757
8.996885,0.902765,-0.455574,1.141178
9.036873,0.713885,0.459208,1.256496
9.066864,1.510358,0.446198,1.217094
9.096855,1.654953,-0.275427,1.062706
9.136843,0.928492,-0.626833,1.065943
9.166834,0.954501,-0.082328,1.161439
9.196825,1.335055,0.262331,1.127790
9.236813,1.164501,-0.070561,1.022190
9.266804,0.953076,-0.245588,1.017203
9.296795,0.799299,-0.046804,0.992404
9.336783,0.901697,0.106045,0.804202
9.366774,0.742379,0.051760,0.654600
9.396765,0.466397,0.242197,0.499337
9.436753,1.061630,0.539436,0.584172
9.466744,0.968664,-0.037954,0.578190
9.496735,0.437822,-0.847147,0.380796
9.536723,0.088003,0.085916,0.140819
9.566714,0.399623,0.876181,0.363759
9.596705,0.800727,0.554253,0.439406
9.636693,0.850406,-0.646016,0.467432
9.666684,0.465829,-0.812156,0.513687
9.696675,0.443242,-0.209328,0.589808
9.736663,0.793326,0.317201,0.677916
9.766654,0.894829,0.054137,0.685923
9.796645,0.849484,-0.419651,0.661948
9.836633,0.854300,-0.473618,0.589336
9.866624,0.899640,-0.058681,0.582226
9.896615,1.033433,0.408918,0.755002
9.936603,1.029353,0.423602,0.900784
9.966594,0.878863,0.217114,0.928044
9.996585,0.847340,0.188705,0.936720
10.036573,1.013618,0.333045,0.980278
10.066564,1.341901,0.015721,1.016989
10.096555,1.692616,-0.727891,0.917872
10.136543,0.625355,-0.723033,0.943670
10.166534,0.078056,0.274999,1.106635
10.196525,0.741537,0.672425,1.096567
10.236513,1.392272,-0.045662,0.745937
10.266504,0.919622,-0.592073,0.643594
10.296495,0.395130,-0.566966,0.763005
10.336483,0.674685,-0.189911,0.750458
10.366474,0.633405,-0.054196,0.672522
10.396465,0.427528,0.045793,0.671553
10.436453,0.287216,0.070104,0.528611
10.466444,0.500175,0.075384,0.285598
10.496436,0.479481,0.184223,0.090029
10.536424,-0.203510,0.530730,-0.286948
10.566415,0.518935,0.751171,-0.282058
10.596406,0.589479,0.409160,-0.260542
10.636394,0.012069,-0.564240,-0.489961
10.666385,-0.547404,-0.016433,-0.675390
10.696376,-0.232892,1.052621,-0.495852
10.736364,0.346843,0.939630,-0.146090
10.766355,-0.018687,-0.053875,-0.195264
10.796346,-0.417014,-0.745782,-0.219306
10.836334,-0.413500,-0.654016,-0.038372
10.866325,-0.359291,-0.357404,0.147748
10.896316,-0.271188,-0.197721,0.255302
10.936304,-0.270258,-0.112196,0.256553
10.966295,-0.200131,-0.120512,0.273124
10.996286,-0.174598,-0.203524,0.180125
11.036274,-0.227407,-0.060491,0.003042
11.066265,-0.076831,0.227291,-0.122431
11.096256,0.091843,0.363813,-0.232187
11.136244,0.143463,0.188257,-0.318474
11.166235,0.112203,0.028183,-0.238812
11.196226,0.103888,-0.013681,-0.073764
11.236214,0.183899,0.007043,0.116621
11.266205,0.103856,-0.096270,0.240617
11.296196,-0.124146,-0.255325,0.316129
11.336184,-0.016894,-0.233770,0.342216
11.366175,-0.195937,-0.106122,0.470572
11.396166,-0.132357,0.036422,0.487997
11.436154,-0.031288,0.105630,0.330520
11.466145,0.026987,-0.060443,0.244184
11.496136,0.215128,-0.299769,0.200268
11.536124,0.182522,-0.393887,0.295600
11.566115,0.141398,-0.309407,0.272563
11.596106,0.256221,-0.253668,0.160123
11.636094,0.457099,-0.271710,0.048125
11.666085,0.482395,-0.199963,0.087170
11.696076,0.325722,-0.045570,0.122449
11.736064,0.070540,0.180244,0.234958
11.766055,0.102336,0.167567,0.238635
11.796046,0.156371,0.065450,0.103778
11.836034,0.154104,-0.044485,0.030169
11.866025,0.220371,-0.139366,-0.005565
11.896016,-0.130536,0.025547,-0.096535
11.936004,-0.528449,0.692553,-0.132387
11.965995,0.055815,0.735407,0.100978
11.995986,0.647585,-0.414997,-0.059053
12.038476,-0.539314,-0.969548,-0.669372
12.078464,-0.310221,0.955882,-0.269022
12.108455,0.611530,1.244779,-0.028913
12.138446,0.489383,0.126205,-0.041621
12.178434,-0.312997,-0.891878,-0.106433
12.208425,-0.423431,-0.223584,-0.001650
12.238416,-0.078017,0.699498,0.098112
12.278404,0.370741,0.649847,0.093529
12.308395,0.176340,-0.048133,-0.050099
12.338386,-0.088344,-0.361183,-0.175185
12.378374,0.185717,0.137069,-0.005430
12.408365,0.147669,0.306718,0.109165
12.438356,0.091018,0.175805,0.129882
12.478344,0.372240,0.130022,0.276128
12.508335,0.498259,0.171719,0.354236
12.528329,0.615849,0.196411,0.385879
12.568315,0.713189,0.243183,0.659071
12.598306,0.574749,-0.273944,0.936237
12.628297,1.395399,-1.280764,0.779378
12.668285,-0.120027,-1.223649,0.627607
12.698276,-0.080067,0.297512,0.904308
12.728267,1.347406,1.091155,0.947605
12.768255,1.399198,-0.023377,0.676248
12.798246,0.281724,-0.792349,0.651534
12.828237,0.121660,-0.329591,0.777429
12.868225,0.445743,0.692012,0.702978
12.898216,0.293064,0.610348,0.366342
12.938204,0.476421,-0.080291,0.029789
12.968195,0.489187,-0.654317,0.174667
12.998186,0.261928,-0.753808,0.366737
13.038174,-0.069408,-0.154298,0.412273
13.068165,-0.072381,0.448731,0.332147
13.098156,-0.225720,0.683291,0.274931
13.128147,0.025882,0.516271,0.179082
13.168135,0.119082,-0.064945,-0.135922
13.198126,-0.435144,-0.085706,-0.368360
13.238114,0.338960,0.340899,-0.143482
13.268105,0.952822,-0.600437,-0.138396
13.298096,-0.377511,-1.534839,-0.788093
13.328087,-0.959116,-0.196476,-1.295808
13.368075,0.099880,2.221717,-0.790785
13.398066,0.513762,1.750085,-0.487793
13.428057,-0.441556,-0.003775,-0.469854
13.468045,-1.214764,-0.723828,-0.327801
13.498036,-0.657793,0.051189,-0.135641
13.538024,-0.232914,0.594529,-0.072060
13.568015,-0.538008,0.256597,-0.080117
13.598006,-0.684816,-0.121060,-0.177727
13.627997,-0.345332,-0.154083,-0.224476
13.667985,-0.193515,-0.033708,-0.085919
13.697976,-0.087196,0.077404,0.013249
13.737964,0.290132,0.136128,-0.132355
13.767955,0.119149,0.246868,-0.225829
13.797946,-0.190102,0.241483,-0.067302
13.837934,0.514550,-0.240001,0.275452
13.867925,0.310055,-1.280782,0.294192
13.897916,-0.841373,-0.499914,0.043517
13.937904,0.236780,0.877364,0.315781
13.967895,0.930558,0.619849,0.422942
13.997886,0.282453,-0.407293,0.264648
14.037874,-0.443291,-0.715339,0.078121
14.067865,-0.076263,-0.190667,0.103119
14.097856,0.486937,0.080122,0.041148
14.137844,0.288919,-0.216428,-0.143364
14.167835,-0.034429,-0.328052,-0.204879
14.197826,0.055128,-0.169049,-0.287942
14.237814,0.019674,-0.028307,-0.358779
14.267805,-0.393318,-0.017787,-0.481327
14.297796,-0.892081,0.189308,-0.634154
14.337784,-0.537843,0.637193,-0.613581
14.367775,-0.225807,0.454862,-0.391139
14.397766,-0.629386,-0.383035,-0.581024
14.437754,-1.314078,-0.161873,-0.988210
14.467745,-0.520328,0.902567,-0.903909
14.497739,-0.037014,1.111719,-0.662208
14.537727,-0.496319,-0.200151,-0.623183
14.567718,-1.133865,-0.797022,-0.641813
14.597709,-0.858856,-0.522865,-0.554598
14.637697,-0.472001,0.160060,-0.325485
14.667688,-0.536050,0.278478,-0.177557
14.697679,-0.617337,0.078844,-0.112913
14.737667,-0.497788,-0.027022,-0.099646
14.767658,-0.320725,0.046550,-0.087460
14.797649,-0.070926,0.117167,-0.067067
14.837637,-0.154464,0.272909,-0.005029
14.867628,-0.397130,0.262057,0.208915
14.897619,0.083947,-0.152024,0.476215
14.937607,-0.009013,-0.869356,0.344092
14.967598,-0.641258,-0.283726,0.104825
14.997589,-0.054603,0.708531,0.031511
15.037577,0.728673,0.611938,0.156835
15.067568,-0.048913,-0.144281,0.173556
15.097559,-0.320263,-0.345628,0.136843
15.137547,0.354893,0.066832,0.104378
15.167538,0.380977,0.123678,0.003313
15.197529,0.107906,-0.038774,-0.113474
15.237517,-0.002253,-0.058894,-0.081827
15.267508,0.142264,0.115480,-0.073743
15.297499,-0.067958,0.221135,-0.177094
15.337487,-0.628327,0.301441,-0.427051
15.367478,0.002835,0.422883,-0.328707
15.397469,0.156223,0.131685,-0.449057
15.437457,-0.532976,-0.712566,-0.787282
15.467448,-1.063611,-0.150512,-0.862014
15.497435,-0.352105,0.756774,-0.705466
15.537423,0.136512,0.572177,-0.568864
15.567414,-0.413644,-0.365955,-0.629112
15.597405,-0.822910,-0.750166,-0.632416
15.637393,-0.616383,-0.135216,-0.360265
15.667384,-0.301107,0.137862,-0.145822
15.697375,-0.286240,-0.045684,-0.070764
15.737363,-0.427527,-0.229857,0.036634
15.767354,-0.374691,-0.029037,0.137749
15.797345,-0.162633,0.197352,0.259006
15.837333,0.150234,0.187486,0.281759
15.867324,-0.011305,0.264316,0.205412
15.897315,-0.142843,0.415542,0.305893
15.937303,0.544805,-0.108816,0.417071
15.967294,0.584989,-0.930226,0.373752
15.997285,-0.290356,-0.656947,0.234406
16.041024,0.345319,0.655549,0.344902
16.071015,0.798180,0.507704,0.301511
16.111003,-0.094258,-0.258623,0.226465
16.140994,-0.033180,-0.198498,0.207776
16.170985,0.406917,0.106475,0.141447
16.210973,0.456159,0.061583,-0.057134
16.240964,0.259552,-0.148624,-0.093896
16.270955,0.024394,-0.286107,-0.085312
16.310943,0.066451,-0.098520,-0.131204
16.340934,-0.257153,0.236240,-0.159828
16.370925,-0.637044,0.509450,-0.186535
16.410913,-0.191351,0.272440,-0.009354
16.440904,-0.155665,-0.377650,-0.275772
16.470895,-0.657558,-0.743495,-0.620405
16.510884,-0.526016,0.465975,-0.664946
16.530875,0.112684,1.087022,-0.613468
16.560866,0.500138,1.172754,-0.648275
16.600854,-0.297717,0.135945,-0.662852
16.630845,-0.889808,-0.499214,-0.592842
16.660836,-0.671702,-0.342444,-0.357343
16.700824,-0.238144,0.141878,-0.130139
16.730815,-0.263574,0.180128,-0.020275
16.760806,-0.223924,0.075085,0.076466
16.800794,0.027336,-0.018273,0.164694
16.830785,0.160016,-0.116986,0.220053
16.860776,0.198945,-0.168191,0.273275
16.900764,-0.026817,0.041462,0.341899
16.930755,0.054304,-0.020531,0.440552
16.960746,0.673258,-0.529545,0.339704
17.000734,-0.141149,-0.351610,0.217122
17.030725,-0.390594,0.774567,0.355369
17.060716,0.453926,1.337615,0.446394
17.100704,0.979551,0.251605,0.472201
17.130695,0.314117,-0.857920,0.466960
17.160686,0.046692,-1.112220,0.580577
17.200674,0.531611,-0.608916,0.651792
17.230665,0.826387,-0.490499,0.456682
17.260656,0.614565,-0.586669,0.312066
17.300644,0.302997,-0.482309,0.250090
17.330635,0.260441,-0.044007,0.182405
17.360626,0.233464,0.257661,0.068439
17.400614,-0.300450,0.350362,-0.066253
17.430605,0.050739,0.032577,0.122176
17.460596,-0.058541,-0.331303,-0.150890
17.500583,-0.306804,-0.462744,-0.647932
17.530574,-0.497115,0.524633,-0.795106
17.560565,0.125660,1.450662,-0.620962
17.600553,0.705584,1.037427,-0.513949
17.630544,0.094303,-0.117528,-0.541835
17.660535,-0.636232,-0.782492,-0.420940
17.700523,-0.524941,-0.427804,-0.181535
17.730514,-0.192433,0.023695,-0.065657
17.760505,-0.099547,0.184667,0.010088
17.800493,-0.154575,0.121714,0.142722
17.830484,-0.094205,0.039965,0.222339
17.860476,-0.002696,-0.017834,0.286265
17.900463,0.108139,0.042540,0.302732
17.930454,0.030985,0.280741,0.367949
17.960445,0.230406,0.126259,0.548412
18.000434,1.012449,-0.960221,0.448722
18.030424,0.398112,-1.306042,0.417085
18.060415,-0.511073,-0.230311,0.517784
18.100404,0.889451,1.141950,0.612141
18.130394,1.232740,0.706473,0.604207
18.160385,0.687330,-0.443880,0.584309
18.200373,0.086910,-0.735530,0.717130
18.230364,0.399625,-0.141505,0.734092
18.260356,0.764914,0.205557,0.580399
18.300343,0.503525,-0.011203,0.254862
18.330334,0.237800,-0.138260,0.137578
18.360326,0.320803,0.073806,0.109320
18.400313,0.256648,0.305258,0.049770
18.430305,-0.130537,0.319044,0.064555
18.470293,0.044236,0.412312,0.143178
18.500288,0.329009,0.128164,0.135851
18.530279,0.128979,-0.419371,-0.244461
18.570267,-0.354772,-0.373910,-0.531303
18.600258,-0.132199,0.516211,-0.415195
18.630249,0.427133,0.940652,-0.314496
18.660240,0.437471,0.556725,-0.318153
18.700228,-0.031482,-0.393288,-0.359864
18.730219,-0.256046,-0.620388,-0.237987
18.760210,-0.206074,-0.346335,-0.127678
18.800198,0.026009,-0.029016,0.021173
18.830189,0.023644,-0.084298,0.097844
18.860180,-0.031414,-0.141900,0.156070
18.900168,0.128333,-0.026572,0.224703
18.930159,0.251341,0.123892,0.268465
18.960150,0.340567,0.155549,0.317253
19.000138,0.316407,0.141576,0.398699
19.030129,0.380998,0.297253,0.420784
19.060120,0.484632,0.267132,0.557665
19.100108,1.022377,-0.249216,0.558661
19.130099,1.118303,-0.722638,0.566545
19.160090,0.390806,-0.442310,0.723496
19.200078,0.156066,0.619843,1.030265
19.230069,0.944297,0.565103,0.960714
19.270057,0.960897,-0.582268,0.771905
19.300048,0.375429,-0.994959,0.877966
19.330039,0.415718,-0.621082,0.910810
19.360030,0.790146,0.061648,0.722375
19.400018,0.834755,0.302119,0.508744
19.430009,0.671527,0.066685,0.453757
19.469997,0.477091,0.012673,0.431615
19.499985,0.400519,0.121464,0.331396
19.529976,0.283622,0.239994,0.268745
19.559967,0.066409,0.322278,0.297401
19.599955,0.516970,0.335649,0.362641
19.629946,0.647384,0.072065,0.268876
19.659937,0.259600,-0.200186,0.016032
19.699925,-0.276283,0.457392,-0.199138
19.729916,0.048756,1.140791,-0.091699
19.769904,0.697037,0.870310,-0.079810
19.799895,0.716358,-0.064672,-0.127120
19.829886,0.411070,-0.644584,0.036652
19.859877,0.443559,-0.490011,0.286269
19.899865,0.727577,0.203300,0.575912
19.929856,0.937321,0.233698,0.650218
19.959847,0.976890,-0.076729,0.669575
19.999835,0.994616,-0.161755,0.714121
20.041075,1.271060,0.079980,0.865012
20.071066,1.308592,0.043550,0.981485
20.111054,1.419977,-0.166770,1.101290
20.141045,1.638295,-0.152079,1.158778
20.171036,1.773470,-0.005468,1.212119
20.211024,1.925128,-0.122308,1.377246
20.241015,1.926987,-0.580463,1.536934
20.271006,1.616683,-0.797958,1.537809
20.310994,1.743789,-0.494968,1.579734
20.340985,2.009769,-0.326607,1.584857
20.370976,2.062892,-0.442512,1.526359
20.410964,1.822885,-0.719453,1.428879
20.440955,1.841028,-0.664402,1.358154
20.470946,1.906403,-0.356099,1.362850
20.510934,1.759045,-0.010956,1.302227
20.530928,1.783916,0.047336,1.272313
20.570914,1.754721,0.031213,1.432993
20.600905,1.739819,-0.005612,1.631980
20.630896,1.661082,-0.053211,1.656499
20.670884,1.477906,-0.030112,1.615990
20.700875,1.474555,-0.080989,1.629119
20.730867,1.527828,-0.221927,1.576298
20.770854,1.503552,-0.321892,1.371241
20.800845,1.426912,-0.309346,1.244133
20.830837,1.246050,-0.202841,1.136426
20.870824,1.532601,-0.127816,1.039259
20.900816,1.648342,-0.165037,1.076741
20.930807,1.265859,-0.207397,0.993775
20.970795,0.910037,-0.002029,0.809319
21.000786,1.007604,0.250434,0.704562
21.030777,1.097936,0.329756,0.472183
21.070765,1.011145,0.234195,0.282548
21.100756,1.062972,0.058708,0.485593
21.130747,1.109739,-0.225074,0.657076
21.170735,0.979856,-0.343157,0.634626
21.200726,0.888917,-0.053555,0.681125
21.230717,0.873419,0.158110,0.735326
21.270705,0.706224,-0.059403,0.651921
21.300696,0.275775,-0.333639,0.591566
21.330687,-0.050453,-0.319447,0.516569
21.370675,-0.041478,-0.014697,0.414977
21.400666,-0.001162,0.114321,0.381335
21.430657,-0.023359,0.066244,0.290102
21.470645,0.094183,-0.045030,0.095395
21.500635,0.223700,0.080925,-0.018335
21.530626,0.305969,0.468145,0.009857
21.570614,0.130423,0.574278,0.242872
21.600605,0.876143,-0.077517,0.376161
21.630596,0.590859,-0.687676,0.565669
21.670584,-0.470337,-0.142157,0.594348
21.700575,-0.005994,0.359581,0.576055
21.730566,0.790575,0.229794,0.460529
21.770554,0.639910,-0.326023,0.288058
21.800545,-0.030011,-0.387495,0.225938
21.830536,-0.071902,-0.104026,0.279415
21.870524,0.283868,0.017827,0.213824
21.900515,0.161735,-0.099128,0.152609
21.930506,-0.164499,-0.095117,0.087311
21.970494,-0.173543,0.071352,-0.178853
22.000485,-0.023167,0.228274,-0.286824
22.030476,-0.255842,0.371349,-0.302500
22.070464,-0.763323,0.379218,-0.451943
22.100455,-0.426753,0.308631,-0.421750
22.130446,-0.482363,0.090783,-0.478050
22.170434,-0.721944,-0.537886,-0.785594
22.200425,-1.188615,-0.285201,-0.976855
22.230416,-0.947856,0.477538,-1.001998
22.270404,-0.328949,0.682045,-0.783353
22.300395,-0.565189,0.079157,-0.761304
22.330386,-0.891603,-0.385037,-0.795485
22.370374,-0.916386,-0.242295,-0.633658
22.400365,-0.775247,-0.010008,-0.481115
22.430356,-0.767961,0.082371,-0.418637
22.470344,-0.685206,0.075937,-0.366933
22.500336,-0.576528,0.071521,-0.255453
22.530327,-0.542995,0.044795,-0.075700
22.570315,-0.436111,0.000596,0.049065
22.600306,-0.627591,0.210679,-0.051478
22.630297,-0.680737,0.357959,-0.016390
22.670285,0.464607,-0.062907,-0.095348
22.700276,0.589581,-0.785893,0.052409
22.730267,-0.512445,-0.654566,0.265577
22.770255,-0.193976,0.524437,0.230303
22.800246,0.452961,0.775720,0.246634
22.830237,0.719475,0.113308,0.183429
22.870225,0.132638,-0.587922,0.173720
22.900216,0.110727,-0.458124,0.271441
22.930207,0.363694,-0.205926,0.319222
22.970195,0.432714,-0.223327,0.294159
23.000186,0.334914,-0.348617,0.168156
23.030177,0.291312,-0.212088,-0.024380
23.070166,0.136857,0.207010,-0.111589
23.100157,-0.045582,0.301985,-0.087212
23.130148,-0.254279,0.189276,-0.111379
23.170136,-0.181061,0.137513,-0.211910
23.200127,0.064698,0.066613,0.007753
23.230118,-0.243804,-0.065583,-0.214122
23.270106,-0.653806,-0.238017,-0.481683
23.300097,-0.441547,0.395646,-0.492175
23.330088,-0.051992,0.847378,-0.420114
23.370076,-0.091250,0.477328,-0.334069
23.400067,-0.117208,-0.085071,-0.321278
23.430058,-0.359895,-0.259265,-0.248060
23.470046,-0.264708,0.055170,0.039658
23.500040,-0.062604,0.084154,0.174132
23.530031,-0.061012,-0.158784,0.192263
23.570019,-0.169444,-0.281043,0.197479
23.600010,-0.137090,-0.077316,0.206252
23.630001,0.036316,0.179120,0.135066
23.669989,0.221911,0.304834,0.061055
23.699980,0.131162,0.235221,0.123429
23.729971,-0.113816,0.115991,0.286051
23.769959,0.328352,-0.288946,0.343329
23.799950,0.882143,-0.739798,0.323415
23.829941,0.234162,-0.742955,0.473598
23.869929,-0.172795,0.354378,0.602719
23.899920,0.433282,0.654271,0.527031
23.929911,0.761468,-0.009547,0.443582
23.969899,0.216396,-0.752651,0.396569
23.999890,0.188731,-0.470920,0.427009
24.041130,0.611431,0.135126,0.310513
24.071121,0.607180,0.039370,0.227293
24.111109,0.415230,-0.260183,0.168850
24.141100,0.405895,-0.158985,0.075289
24.171091,0.401630,0.061999,-0.026303
24.211079,0.019261,0.179694,-0.008274
24.241070,0.070313,0.173087,-0.011732
24.271061,0.360127,0.206587,-0.051721
24.311049,0.275311,0.057516,-0.381318
24.341040,-0.485865,0.099393,-0.424579
24.371031,-0.846175,0.537754,-0.456269
24.411019,-0.105168,0.452918,-0.631413
24.441010,0.134179,-0.211128,-0.959195
24.471001,-0.358333,-0.743101,-1.236069
24.510986,-0.802284,-0.256787,-0.950874
24.532227,-0.735857,0.202517,-0.630239
24.562218,-0.589502,0.508161,-0.330180
24.602206,-0.700594,0.191797,-0.006781
24.632197,-0.643870,-0.087903,0.263519
24.662188,-0.596850,-0.192502,0.438862
24.702176,-0.430493,-0.073172,0.532911
24.732167,0.040837,0.288645,0.491852
24.762158,0.307490,0.692666,0.506210
24.802146,0.157998,0.595132,0.680382
24.832137,0.804354,-0.191557,0.840079
24.862128,1.294188,-1.365958,0.933929
24.902116,-0.348821,-0.823898,0.675723
24.932107,-0.087958,0.655863,0.550659
24.962098,1.263976,1.246845,0.483280
25.002086,1.372227,0.139064,0.454415
25.032077,0.475435,-0.637250,0.505983
25.062068,0.223661,-0.593149,0.586584
25.102056,0.620018,-0.062316,0.531363
25.132047,0.701079,0.068274,0.395101
25.162038,0.613607,-0.057836,0.286290
25.202026,0.301523,-0.212400,0.138625
25.232017,0.134353,-0.109228,0.051315
25.262008,-0.225149,0.259449,-0.100771
25.301996,0.085229,0.803564,-0.176840
25.331988,0.576312,0.640219,-0.029566
25.361979,0.509943,-0.242081,-0.177138
25.401967,-0.769682,-0.299841,-0.683311
25.431958,-0.333352,0.890277,-0.506987
25.461949,0.444679,1.485689,-0.323017
25.501936,0.271784,0.537314,-0.373166
25.531927,-0.492457,-0.367118,-0.269177
25.561918,-0.585053,-0.504370,-0.176922
25.601906,-0.151035,-0.048353,-0.083216
25.631897,0.071864,0.166125,-0.010704
25.661888,-0.021400,0.098930,0.055464
25.701876,0.032736,-0.156858,0.134983
25.731867,0.083748,-0.164565,0.187422
25.761858,0.124897,-0.070036,0.206700
25.801846,0.309640,0.133742,0.218593
25.831837,0.385914,0.333779,0.162769
25.861828,0.065015,0.540989,0.207603
25.901816,0.500675,0.137321,0.346662
25.931807,1.132424,-0.853052,0.344795
25.961798,0.049840,-1.068960,0.255052
26.001786,-0.417592,0.344323,0.378581
26.031777,0.571612,0.916554,0.470231
26.061768,0.742635,0.348022,0.400601
26.101756,-0.124443,-0.472917,0.209591
26.131747,-0.154368,-0.303055,0.147312
26.161738,0.215389,0.049958,0.088995
26.201726,0.662053,0.020663,0.022559
26.231717,0.378830,-0.257493,0.088274
26.261708,0.082470,-0.368443,0.157685
26.301696,0.121893,-0.292241,0.101855
26.331687,-0.137469,-0.123316,-0.024220
26.361678,-0.683854,0.329668,-0.248097
26.401666,0.147207,0.410958,-0.134595
26.431657,0.314356,-0.263523,-0.316844
26.461648,-0.479609,-0.607670,-0.651209
26.501638,-0.596443,0.723423,-0.665910
26.531629,0.170008,1.476857,-0.425347
26.561620,0.361084,0.940930,-0.374445
26.601608,-0.376195,-0.523938,-0.479568
26.631599,-0.622330,-0.780377,-0.375503
26.661590,-0.256967,-0.364654,-0.246848
26.701578,-0.017486,0.140216,-0.035053
26.731569,-0.120571,0.084932,0.126338
26.761560,-0.103886,-0.066723,0.232005
26.801548,0.066776,-0.081337,0.299720
26.831539,0.210075,-0.083361,0.328171
26.861530,0.262482,-0.023918,0.313981
26.901518,-0.011562,0.365517,0.268722
26.931509,-0.152354,0.466643,0.344132
26.961500,0.523198,-0.114107,0.407237
27.001488,0.789382,-1.239914,0.425266
27.031479,-0.305168,-0.660531,0.356052
27.061470,-0.093064,0.599054,0.444686
27.101458,1.077661,0.827621,0.499449
27.131449,0.689394,-0.221917,0.403571
27.161440,-0.143350,-0.760259,0.292394
27.201428,0.264799,-0.182574,0.301852
27.231419,0.782630,0.212104,0.248212
27.261410,0.838029,0.163979,0.047104
27.301398,0.345207,0.048036,0.088743
27.331389,0.344718,0.195711,0.144366
27.361380,0.628781,0.364083,0.048291
27.401368,0.188518,0.312178,-0.114073
27.431359,-0.418311,0.387433,-0.140642
27.461351,-0.391415,0.543092,-0.078779
27.501339,0.148774,0.147837,0.120295
27.531330,0.024375,-0.555219,-0.135166
27.561321,-0.634084,-0.514226,-0.392065
27.601309,-0.314493,0.491893,-0.309086
27.631300,0.331461,0.820280,-0.200572
27.661291,0.226877,0.379068,-0.194357
27.701279,-0.439508,-0.350428,-0.294653
27.731270,-0.548974,-0.223542,-0.285533
27.761261,-0.178155,0.133315,-0.183686
27.801249,0.000724,0.112192,-0.064704
27.831240,-0.099922,-0.120331,-0.000801
27.861231,-0.121994,-0.118866,0.050121
27.901219,0.171400,0.212010,0.112270
27.931210,0.313555,0.281494,0.246147
27.961201,0.241399,0.231802,0.372347
28.001189,-0.066671,0.245028,0.388851
28.042429,0.382193,-0.014482,0.286797
28.072420,1.241133,-0.666254,0.176841
28.102411,0.658863,-0.863396,0.100241
28.142399,-0.516923,0.371189,0.187280
28.172390,0.439609,1.004782,0.259295
28.202381,1.139394,0.544946,0.265113
28.242370,0.314016,-0.524510,0.190474
28.272361,-0.096899,-0.657980,0.202412
28.312349,0.378143,-0.331477,0.202159
28.342340,0.527872,-0.259185,0.029100
28.372331,0.311480,-0.306862,-0.045386
28.402322,-0.177596,-0.285075,-0.005140
28.442310,-0.372859,-0.059149,-0.061421
28.472301,-0.340541,0.219676,-0.151643
28.502292,-0.345910,0.470141,-0.193782
28.542280,-0.709185,0.628395,-0.368733
28.562274,-0.562608,0.625505,-0.407244
28.602259,-0.027299,0.108733,-0.356665
28.632250,-0.264179,-0.341511,-0.373962
28.662241,-0.976645,-0.008469,-0.410039
28.702229,-0.512342,0.899676,-0.289727
28.732220,0.090975,0.972846,-0.260800
28.762211,0.265287,0.323521,-0.205888
28.802200,-0.687048,-0.532571,-0.226101
28.832191,-0.885750,-0.475899,-0.192154
28.862182,-0.628372,-0.015864,-0.174857
28.902170,-0.453060,0.323868,-0.288636
28.932161,-0.544345,0.207757,-0.324614
28.962152,-0.501857,0.032214,-0.282752
29.002140,-0.295725,-0.131166,-0.161852
29.032131,-0.294404,-0.118594,-0.060558
29.062122,-0.186185,0.044403,-0.033565
29.102110,-0.183704,0.251363,0.050223
29.132101,-0.021345,0.008165,0.210781
29.162092,0.638337,-0.842143,0.202989
29.202080,0.141292,-1.206898,0.138538
29.232071,-0.590319,-0.119291,0.274818
29.262062,0.289265,0.767548,0.343981
29.302050,1.183707,0.346334,0.294486
29.332041,0.531389,-0.499817,0.317836
29.362032,-0.042161,-0.725066,0.469484
29.402020,0.384847,-0.218967,0.448700
29.432011,0.757408,0.032273,0.229393
29.462002,0.718885,-0.036250,0.044804
29.501990,0.517425,-0.206906,-0.044194
29.531981,0.378407,-0.187884,-0.046168
29.561973,0.469998,-0.136599,-0.025199
29.601961,0.041932,0.133853,0.049373
29.631952,-0.376588,0.477061,0.042592
29.661943,0.019830,0.582612,0.019162
29.701931,0.429692,-0.118668,-0.066671
29.731922,-0.218009,-0.457972,-0.259527
29.761913,-1.048884,0.246806,-0.371621
29.801901,-0.535568,1.388929,-0.528814
29.831892,-0.053898,1.282763,-0.630158
29.861883,-0.253047,0.379046,-0.594407
29.901871,-1.181169,-0.471168,-0.423665
29.931862,-1.306480,-0.212214,-0.294863
29.961853,-0.964225,0.274007,-0.198225
30.001841,-0.606225,0.435180,-0.154276
30.031832,-0.662793,0.156826,-0.113812
30.061823,-0.663048,-0.097905,-0.055278
30.101811,-0.467691,-0.164954,-0.023203
30.131802,-0.349060,-0.019628,-0.041449
30.161793,-0.189174,0.231392,0.046647
30.201781,0.185022,0.283947,0.146571
30.231772,0.389746,0.105331,0.121978
30.261764,0.294848,0.065031,0.138313
30.301752,0.618242,-0.189704,0.289070
30.331743,1.332976,-1.031508,0.373506
30.361734,0.586721,-1.346209,0.360368
30.401722,-0.334687,0.018381,0.516297
30.431713,0.573988,0.784611,0.420902
30.461704,1.413925,0.376496,0.175752
30.501692,0.560251,-0.687507,-0.015185
30.531687,0.118306,-0.768327,0.142790
30.561678,0.344718,-0.446170,0.271409
30.601666,0.935073,-0.339541,0.174674
30.631657,0.675132,-0.382824,0.052893
30.661648,0.318634,-0.214988,0.055170
30.701636,0.223435,0.242253,0.173302
30.731627,0.169005,0.453022,0.189555
30.761618,0.023906,0.568693,0.232802
30.801606,-0.007257,0.680516,0.224425
30.831597,0.440272,0.502413,0.280659
30.861588,0.724465,-0.039102,0.266423
30.901576,-0.001214,-0.450295,0.157809
30.931568,-0.346629,0.089334,0.055275
30.961559,-0.100323,0.908237,-0.120003
31.001547,0.835759,1.049970,-0.199579
31.031538,0.736288,0.283356,-0.141869
31.061529,0.064846,-0.506733,-0.041553
31.101517,-0.191954,-0.599389,0.098439
31.131508,0.266124,-0.184078,0.107855
31.161499,0.762717,0.134492,0.148040
31.201487,0.675981,-0.032818,0.278539
31.231478,0.654555,-0.263318,0.443101
31.261469,0.787229,-0.274179,0.596251
31.301457,0.976213,-0.133808,0.811032
31.331448,1.058966,-0.214775,0.845146
31.361439,1.195654,-0.474336,0.796715
31.401427,1.875749,-1.117115,0.643976
31.431418,1.563040,-1.368876,0.671965
31.461409,0.551172,-0.964965,0.786166
31.501397,0.831197,-0.008471,0.690430
31.531384,1.803226,0.233988,0.675025
31.561376,1.886247,-0.068257,0.788297
31.601364,0.820997,-0.576358,0.959543
31.631355,0.605098,-0.566568,0.952672
31.661346,1.035113,-0.268456,0.888476
31.701334,1.329106,-0.134519,0.826320
31.731325,1.268459,-0.300959,0.716191
31.761316,1.248028,-0.407327,0.644659
31.801304,1.360285,-0.404225,0.677389
31.831295,1.061122,-0.228575,0.707581
31.861286,0.565949,0.313457,0.655258
31.901274,0.897575,0.879405,0.614931
31.931265,1.748398,0.587277,0.552036
31.961256,1.924358,-0.078092,0.327396
32.001244,0.462710,-0.052043,0.418551
32.044984,0.525576,0.857678,0.598579
32.074975,1.012191,1.039463,0.546895
32.104966,1.220856,0.595742,0.543289
32.134957,0.774287,-0.104204,0.530517
32.174945,0.112988,-0.349679,0.610507
32.204936,0.230804,-0.120047,0.587011
32.234927,0.613867,0.030341,0.449220
32.274915,0.922757,-0.119074,0.323422
32.304906,0.866499,-0.398407,0.360381
32.344894,0.849089,-0.532278,0.459458
32.374885,1.062311,-0.387123,0.574216
32.404876,1.226436,-0.185916,0.736014
32.434867,1.266316,-0.194119,0.871279
32.474856,1.408797,-0.346766,0.895593
32.504847,1.630525,-0.266925,0.902756
32.534838,1.546922,0.005522,0.921048
32.564829,1.503321,0.151475,1.085361
32.604816,2.269858,-0.579708,1.187553
32.634807,2.237677,-1.349740,1.159244
32.664798,1.233402,-1.333564,1.288558
32.704786,0.847008,-0.313551,1.228583
32.734777,1.990932,0.186923,0.904976
32.764768,2.448748,0.099783,0.770957
32.804756,1.564660,-0.461073,1.055446
32.834747,1.185863,-0.717635,1.139758
32.864738,1.247640,-0.660679,1.114413
32.904726,1.565741,-0.475503,1.013368
32.934717,1.497118,-0.501723,0.901760
32.964708,1.241537,-0.597619,0.821623
33.004696,1.110849,-0.622289,0.722031
33.034687,1.026589,-0.503035,0.605876
33.064678,0.788847,-0.127229,0.527730
33.104666,0.720630,0.569370,0.464679
33.134658,0.925476,0.702039,0.579839
33.164649,1.204145,0.224760,0.538857
33.204637,0.512924,-0.400013,0.408183
33.234628,0.197287,-0.039023,0.416227
33.264619,0.559845,0.575463,0.406589
33.304607,1.164421,0.602637,0.403855
33.334598,0.976012,-0.090095,0.555001
33.364589,0.250749,-0.686333,0.640804
33.404577,-0.073095,-0.635890,0.540975
33.434568,0.202289,-0.117725,0.456115
33.464559,0.447776,0.274663,0.456508
33.504547,0.423063,0.058316,0.352565
33.534538,0.231191,-0.134656,0.292608
33.564529,0.403272,-0.002573,0.317297
33.604517,0.848612,0.198790,0.445307
33.634508,0.954402,0.129335,0.423020
33.664499,0.944643,0.056072,0.414310
33.704487,1.120409,-0.216277,0.492583
33.734479,1.680592,-0.749968,0.556781
33.764470,0.929396,-1.014590,0.773380
33.804458,-0.370924,-0.170882,0.849676
33.834449,0.501449,0.463612,0.651048
33.864440,1.650203,0.412086,0.411305
33.904428,0.848182,-0.327746,0.334318
33.934419,0.177188,-0.531644,0.409046
33.964410,0.431799,-0.336071,0.386269
34.004398,0.802303,-0.146500,0.225815
34.034389,0.608971,-0.219970,0.086026
34.064380,0.358992,-0.256103,-0.038932
34.104368,0.448172,-0.080174,-0.168758
34.134359,0.492528,0.108675,-0.186937
34.164350,0.243167,0.290287,-0.109983
34.204338,0.031940,0.448756,-0.104383
34.234329,-0.505870,0.763069,-0.268862
34.264320,-0.206885,1.031222,-0.162479
34.304308,0.340037,0.403383,-0.377088
34.334300,0.323240,-0.625014,-0.613471
34.364291,-0.850541,-0.665801,-0.876247
34.404279,-0.587087,0.613364,-0.950558
34.434270,-0.018661,1.202482,-0.977755
34.464261,0.020068,0.799304,-0.788984
34.504249,-1.301712,-0.108700,-0.291633
34.534240,-1.707875,-0.133168,-0.073673
34.574228,-0.971439,0.213646,-0.070586
34.604219,-0.350987,0.120911,-0.192329
34.634210,-0.362361,-0.256656,-0.203023
34.664201,-0.629160,-0.529526,-0.163117
34.704189,-0.489304,-0.273610,-0.153702
34.734180,-0.213126,0.138812,-0.147173
34.774168,-0.110524,0.377855,0.012996
34.804159,-0.197152,0.240094,0.150883
34.834150,0.041480,0.041921,0.233893
34.874138,0.693245,-0.091255,0.244612
34.904129,0.467690,-0.098843,0.489411
34.934121,0.255778,-0.358729,0.793366
34.974109,0.851558,-1.090574,0.952966
35.004100,-0.124850,-0.935148,0.918020
35.034091,-0.345861,-0.294292,0.872483
35.074079,0.736719,0.075616,0.575843
35.104070,1.113762,-0.304631,0.368854
35.134061,0.627239,-0.779885,0.333663
35.174049,0.174403,-0.535699,0.354058
35.204040,0.262166,0.163342,0.309811
35.234031,0.492814,0.549896,0.181260
35.274019,0.713710,0.223195,-0.015387
35.304010,0.463160,-0.167550,-0.100337
35.334001,0.141602,-0.197669,-0.034880
35.373989,-0.003318,0.159897,0.079343
35.403980,0.054083,0.337867,-0.008476
35.433971,-0.327833,0.507278,-0.175554
35.473959,-0.434106,0.886968,-0.120849
35.503950,0.441846,0.334556,-0.020137
35.533941,0.215513,-0.677735,-0.254862
35.573929,-1.425327,0.069505,-0.631755
35.603921,-0.783790,1.384674,-0.530971
35.633912,0.340221,1.718062,-0.518963
35.673900,0.124521,0.171464,-0.527049
35.703891,-0.879683,-0.803552,-0.363406
35.733882,-1.125636,-0.746789,-0.155491
35.773870,-0.460171,0.020969,-0.016347
35.803861,-0.284127,0.298639,0.063997
35.833852,-0.342459,0.103382,0.104542
35.873840,-0.245880,-0.249415,0.098779
35.903831,-0.225236,-0.176713,0.174762
35.933822,-0.146254,0.030682,0.298551
35.973810,0.185935,0.248226,0.244547
36.003801,-0.187720,0.397456,0.136248
36.035043,-0.436288,0.205418,0.221190
36.075031,0.849356,-0.562659,0.348427
36.105022,0.041464,-0.826363,0.336273
36.135013,-0.857713,-0.155313,0.232685
36.175001,0.508776,0.899098,0.248782
36.204992,1.206143,0.636490,0.328812
36.244980,0.569489,-0.453241,0.432138
36.274971,-0.211233,-0.683034,0.465274
36.304962,0.111537,-0.422272,0.350145
36.334953,0.585696,-0.178734,0.087562
36.374942,0.568472,-0.253816,-0.199535
36.404933,0.173757,-0.376720,-0.209202
36.434924,0.052069,-0.287277,-0.159475
36.474912,-0.072824,-0.087619,-0.143418
36.504903,-0.513101,0.184639,-0.200735
36.534894,-0.461277,0.548862,-0.275420
36.574881,-0.080564,0.433469,-0.105351
36.604872,-0.300853,-0.053258,-0.333231
36.634863,-1.081815,-0.038661,-0.590317
36.674851,-0.620937,0.821320,-0.710494
36.704842,0.043397,1.144018,-0.745070
36.734833,0.150897,0.616863,-0.721246
36.774821,-0.777469,-0.311688,-0.522161
36.804812,-1.067585,-0.272656,-0.350801
36.834804,-0.707147,0.127066,-0.197671
36.874792,-0.351390,0.213045,-0.058347
36.904783,-0.522193,-0.037212,0.031534
36.934774,-0.647220,-0.147272,0.067463
36.974762,-0.392844,-0.021681,0.137042
37.004753,-0.166846,0.035412,0.236010
37.034744,-0.057608,0.031023,0.208638
37.074732,-0.482750,0.130371,0.001252
37.104723,-0.288300,-0.009056,0.012186
37.134714,0.998447,-0.695612,0.092247
37.174702,-0.060421,-1.104913,0.156360
37.204693,-1.097410,-0.006439,0.189258
37.234684,-0.075572,1.058855,0.206447
37.274672,1.105238,0.579381,0.301759
37.304663,0.048432,-0.409526,0.343397
37.334654,-0.594284,-0.694158,0.403824
37.374642,0.024475,-0.240632,0.302315
37.404633,0.408018,-0.024948,0.023299
37.434624,0.252373,-0.062314,-0.146603
37.474613,-0.037980,-0.011028,-0.156777
37.504604,0.104555,0.147217,-0.204120
37.534594,-0.058282,0.221520,-0.226470
37.574582,-0.558443,0.370413,-0.245466
37.604573,-0.487942,0.550411,-0.301699
37.634564,0.003031,0.472938,-0.150706
37.674552,0.068733,-0.221102,-0.422531
37.704543,-0.728889,-0.384280,-0.677612
37.734534,-0.698890,0.267579,-0.736668
37.774522,0.025396,0.945130,-0.649913
37.804513,0.077602,0.434210,-0.538072
37.834504,-0.579809,-0.314905,-0.422978
37.874492,-0.985789,-0.330305,-0.298299
37.904483,-0.632591,0.154778,-0.203785
37.934474,-0.206172,0.333380,-0.088576
37.974462,-0.272615,-0.064708,0.042245
38.004453,-0.377715,-0.270649,0.112792
38.034444,-0.236230,-0.260170,0.150870
38.074432,0.042581,-0.292492,0.159246
38.104423,-0.050760,-0.318885,0.067331
38.134414,-0.280426,-0.079833,-0.057866
38.174403,-0.097781,0.090277,-0.021659
38.204394,0.639811,-0.470142,0.147231
38.234385,0.448738,-1.157085,0.215655
38.274373,-1.168629,-0.439531,0.329142
38.304364,-0.473007,0.375045,0.217407
38.334355,0.733074,0.611857,-0.074130
38.374343,0.712653,-0.234410,-0.094353
38.404334,-0.432597,-0.538865,0.104881
38.434325,-0.505293,-0.215003,0.102677
38.474313,0.362969,0.319408,-0.018930
38.504304,0.376854,0.244560,-0.030186
38.534295,0.080127,-0.047257,0.051018
38.574283,-0.004817,-0.202482,-0.046473
38.604274,0.078450,-0.038204,-0.161312
38.634265,-0.267761,0.222690,-0.244324
38.674253,-0.316260,0.562415,-0.407812
38.704244,0.290899,0.333380,-0.432353
38.734235,0.223806,-0.418292,-0.529708
38.774223,-1.255092,-0.430981,-0.651910
38.804215,-0.903844,0.544236,-0.646456
38.834206,-0.271481,1.203760,-0.569304
38.874194,-0.051501,0.310744,-0.656658
38.904185,-0.663990,-0.627735,-0.824642
38.934176,-1.257602,-0.797269,-0.692281
38.974164,-0.912773,-0.145522,-0.249375
39.004155,-0.476381,0.116972,-0.061278
39.034146,-0.486202,0.036113,0.005961
39.074134,-0.446177,-0.154853,0.112327
39.104125,-0.345804,-0.141167,0.250282
39.134116,-0.199790,-0.068576,0.222981
39.174104,0.140627,0.177344,0.034740
39.204095,0.036465,0.429201,-0.001076
39.234086,0.126166,0.340321,0.128008
39.274074,0.938036,-0.499688,0.253900
39.304065,0.508187,-0.965101,0.360635
39.334056,-0.347397,-0.350324,0.416436
39.374044,0.523660,0.653750,0.417804
39.404035,1.103336,0.374422,0.347050
39.434027,0.513345,-0.408566,0.309072
39.474015,-0.231093,-0.592297,0.352589
39.504006,0.099130,-0.194044,0.331866
39.533998,0.629315,0.076149,0.153412
39.573986,0.511979,0.006707,0.076334
39.603977,-0.094989,-0.173724,0.117459
39.633968,-0.155926,-0.210180,-0.003000
39.673956,-0.121661,0.007168,-0.181646
39.703947,-0.533529,0.300099,-0.293631
39.733938,-0.505652,0.605770,-0.418874
39.773926,0.078418,0.279036,-0.276478
39.803917,-0.318870,-0.448453,-0.310141
39.833908,-1.431059,-0.171674,-0.559580
39.873896,-0.381011,0.975434,-0.632559
39.903887,0.302704,1.121708,-0.578769
39.933878,0.003629,0.344506,-0.513584
39.973866,-0.896139,-0.595162,-0.219407
40.003857,-0.824290,-0.423469,-0.029634
40.035099,-0.379028,-0.009644,0.046640
40.075087,-0.097545,0.159372,0.135074
40.105078,-0.207635,0.146134,0.222312
40.135069,-0.080044,0.149910,0.261317
40.175057,0.241024,0.104077,0.304837
40.205048,0.123334,-0.032103,0.245474
40.235039,-0.105370,-0.031581,0.264570
40.275027,0.436707,-0.323393,0.274281
40.305018,0.967046,-0.853135,0.190894
40.335009,-0.076260,-0.709252,0.283122
40.374997,-0.077673,0.633185,0.336656
40.404988,0.933478,1.012160,0.392794
40.434979,1.031915,0.206827,0.486709
40.474967,-0.040670,-0.786336,0.732574
40.504959,0.004010,-0.487560,0.846003
40.534950,0.519870,0.107972,0.772929
40.564940,0.811857,0.248296,0.540420
40.604928,0.617971,-0.116742,0.255177
40.634919,0.486255,-0.259717,0.102314
40.664910,0.506816,-0.133694,-0.029501
40.704898,0.187101,0.123186,-0.032090
40.734889,-0.003804,0.202616,-0.037397
40.764880,0.351510,-0.055959,0.051292
40.804868,0.130947,-0.533720,-0.340090
40.834859,-0.721897,0.010602,-0.517704
40.864850,-0.368015,1.200285,-0.488445
40.904838,0.464191,1.556439,-0.347168
40.934829,0.151917,0.591574,-0.390507
40.964820,-0.514432,-0.354627,-0.377558
41.004808,-0.564356,-0.365596,-0.225720
41.034799,-0.251250,0.071353,-0.185724
41.064790,-0.005885,0.199657,-0.122379
41.104778,-0.063819,-0.093451,0.021009
41.134769,-0.063852,-0.295174,0.122019
41.164760,0.051682,-0.283663,0.236651
41.204748,0.164900,-0.056986,0.384751
41.234740,-0.099575,0.140340,0.379753
41.264731,-0.164977,0.066833,0.506303
41.304719,1.058601,-0.708225,0.433226
41.334710,0.798210,-1.332140,0.407896
41.364701,-0.523054,-0.686015,0.512526
41.404689,0.516420,0.930703,0.441674
41.434680,1.384903,0.886365,0.434985
41.464671,1.006898,-0.204120,0.497683
41.504659,0.012768,-0.965920,0.770071
41.534654,0.282022,-0.523945,0.849395
41.564645,0.709953,-0.007229,0.651059
41.604633,0.772080,-0.005653,0.237372
41.634624,0.499180,-0.038412,0.186720
41.664615,0.309785,0.263526,0.208691
41.704603,0.583767,0.485713,0.206608
41.734594,0.367025,0.302975,0.239255
41.764585,-0.078628,0.194232,0.251333
41.804573,0.119453,0.559883,0.141847
41.834564,0.653945,0.597753,0.141259
41.864555,0.408534,0.084969,-0.242896
41.904544,-0.487355,-0.243081,-0.628230
41.934535,-0.296990,0.527689,-0.547903
41.964526,0.291270,1.129195,-0.365525
42.004514,0.137598,0.497843,-0.281398
42.034505,-0.276891,-0.351678,-0.241544
42.064496,-0.428879,-0.518236,-0.105823
42.104484,-0.285030,0.008864,0.016279
42.134475,-0.194637,0.235377,0.120814
42.164466,-0.172053,0.128078,0.185995
42.204454,-0.180860,-0.094025,0.187098
42.234445,-0.172635,-0.059032,0.216286
42.264436,0.098192,0.082343,0.223683
42.304424,0.474732,0.169174,0.290301
42.334415,0.428324,0.061586,0.305901
42.364406,0.449133,0.046411,0.332419
42.404394,0.964548,-0.227478,0.488766
42.434385,1.238866,-0.853992,0.526267
42.464376,0.557264,-0.866518,0.549219
42.504364,0.373411,0.572786,0.744602
42.534351,1.318855,1.074886,0.817761
42.564343,1.555928,0.389097,0.790416
42.604330,0.650089,-0.847407,0.798149
42.634322,0.541042,-0.976545,0.857779
42.664313,0.837938,-0.577086,0.822253
42.704301,1.129685,-0.236747,0.599124
42.734292,0.916317,-0.342203,0.416153
42.764283,0.627642,-0.329574,0.281533
42.804271,0.698943,0.056679,0.220471
42.834262,0.675112,0.334342,0.288189
42.864253,0.394983,0.375885,0.429306
42.904241,0.017154,0.476391,0.326745
42.934232,0.517779,0.500980,0.465409
42.974220,0.813765,-0.021629,0.377068
43.004211,0.374591,-0.261156,0.143613
43.034202,0.260643,0.292433,0.101047
43.064193,0.746009,0.907255,0.203282
43.104181,1.673399,0.461355,0.311936
43.134172,1.162744,-0.439283,0.379813
43.174160,0.404523,-0.615479,0.623990
43.204151,0.984466,-0.056371,0.678476
43.234142,1.663393,0.305237,0.707226
43.274130,1.761689,-0.083647,0.765083
43.304121,1.638986,-0.360262,0.841769
43.334113,1.660359,-0.232775,0.947506
43.374101,1.884966,0.068161,1.126655
43.404092,1.929487,0.029676,1.175730
43.434083,1.926138,-0.129483,1.181648
43.474071,1.985090,-0.253570,1.237132
43.504062,2.006374,-0.380165,1.361457
43.534052,1.744067,-0.594030,1.437692
43.574040,1.717042,-0.766334,1.391415
43.604031,1.889358,-0.687012,1.387270
43.634022,1.860385,-0.482809,1.483106
43.674010,1.954070,-0.288057,1.609501
43.704001,2.123128,-0.200779,1.634287
43.733992,2.152060,-0.184921,1.654030
43.773980,2.015936,-0.219859,1.688759
43.803971,2.019190,-0.233489,1.718918
43.833962,2.034941,-0.277398,1.725644
43.873950,1.988323,-0.361572,1.656660
43.903941,1.941632,-0.300228,1.513914
43.933932,1.833969,-0.137121,1.371811
43.973920,1.687056,-0.029237,1.214093
44.003911,1.505948,-0.054065,1.102816
44.037652,1.280472,0.017531,0.997975
44.077640,1.270018,0.327574,0.884434
44.107631,1.537531,0.241813,0.971968
44.137622,1.248488,-0.023193,0.838064
44.177611,0.875257,-0.118403,0.619692
44.207602,0.848978,0.263217,0.497381
44.237593,0.963563,0.626556,0.428010
44.277581,0.894750,0.516280,0.450124
44.307572,0.797664,0.148161,0.453762
44.337563,0.693784,-0.100661,0.433419
44.377551,0.496604,-0.042773,0.447557
44.407542,0.443967,0.054179,0.446093
44.437533,0.474299,0.000409,0.412879
44.477521,0.387101,-0.064376,0.360873
44.507512,0.365246,-0.049020,0.327481
44.537504,0.391165,-0.013330,0.332235
44.567494,0.437482,-0.029867,0.323105
44.607482,0.497755,-0.036180,0.373886
44.637473,0.496537,0.024874,0.427487
44.667464,0.495554,0.082186,0.469256
44.707453,0.519704,0.205251,0.391312
44.737443,0.290813,0.360065,0.448310
44.767435,0.505421,0.139692,0.453909
44.807423,1.132843,-0.729764,0.514557
44.837414,-0.000869,-0.796932,0.620343
44.867405,-0.180000,-0.077031,0.625056
44.907393,0.963281,0.435974,0.458671
44.937384,0.824177,-0.166389,0.355664
44.967375,0.082743,-0.654239,0.340998
45.007363,0.048179,-0.240600,0.275040
45.037354,0.331772,0.211408,0.250285
45.067345,0.317147,0.238763,0.236806
45.107333,-0.050064,-0.038820,0.189941
45.137324,-0.109538,-0.043073,0.095626
45.167315,-0.007437,0.036782,-0.027858
45.207303,-0.251330,0.103464,-0.054895
45.237294,-0.378223,0.152948,-0.047290
45.267285,-0.653430,0.300985,-0.168777
45.307273,-0.355730,0.335344,-0.113191
45.337264,-0.301352,0.111499,-0.309855
45.367255,-0.578932,-0.408962,-0.583278
45.407243,-0.949808,-0.303479,-0.797958
45.437234,-0.669288,0.473271,-0.786661
45.467225,-0.274143,0.842330,-0.673235
45.507213,-0.376189,0.207311,-0.637983
45.537203,-0.790921,-0.368013,-0.601884
45.567195,-1.030943,-0.325305,-0.420774
45.607183,-0.699737,0.116801,-0.270285
45.637174,-0.602222,0.168538,-0.242434
45.667165,-0.536611,0.056865,-0.160067
45.707153,-0.493004,-0.022248,-0.033175
45.737144,-0.359573,-0.025340,0.020759
45.767135,-0.124967,0.045848,0.069447
45.807123,-0.144848,0.141626,0.095216
45.837114,-0.319170,0.267617,0.046360
45.867105,-0.161206,0.241182,0.086362
45.907093,0.549243,-0.351754,-0.078725
45.937084,0.250175,-0.858693,0.024012
45.967075,-0.510161,-0.413882,0.092183
46.007063,0.096900,0.696839,0.169635
46.037054,0.513983,0.687389,0.227809
46.067045,0.410156,-0.156247,0.191378
46.107033,-0.108670,-0.752578,0.188006
46.137024,0.007096,-0.385116,0.083085
46.167015,0.334537,-0.034180,0.015887
46.207003,0.516450,-0.075052,0.081248
46.236994,0.040104,-0.176695,0.025327
46.266985,-0.286277,0.005067,-0.159883
46.306973,-0.187179,0.392142,-0.235487
46.336964,-0.255661,0.371239,-0.195324
46.366955,-0.577523,0.234851,-0.333773
46.406943,-0.157592,-0.246160,-0.171952
46.436934,-0.317716,-0.681854,-0.404201
46.466925,-0.822975,-0.877393,-0.804815
46.506914,-0.898241,0.344867,-1.131457
46.536906,-0.252935,1.198669,-0.880856
46.566897,-0.110906,1.000589,-0.677752
46.606885,-0.556813,-0.383677,-0.693265
46.636876,-0.996582,-0.753403,-0.606813
46.666867,-0.889109,-0.318602,-0.362415
46.706855,-0.406353,0.161761,-0.111634
46.736846,-0.312707,0.051226,-0.044323
46.766837,-0.355370,-0.154025,0.008580
46.806825,-0.253217,-0.132729,0.105682
46.836816,0.004459,-0.053413,0.146785
46.866807,0.193769,0.044480,0.148693
46.906795,-0.230709,0.094613,0.268172
46.936786,0.055242,-0.162281,0.215020
46.966777,0.858262,-0.779178,0.119946
47.006765,0.067960,-1.026387,0.112085
47.036756,-0.679253,0.162094,0.204231
47.066747,0.099340,1.204856,0.288103
47.106735,0.966043,0.762978,0.245298
47.136726,0.337313,-0.365633,0.236968
47.166717,-0.199125,-0.707817,0.346511
47.206705,0.139674,-0.107276,0.443050
47.236696,0.505153,0.139925,0.271932
47.266687,0.418287,-0.018415,0.094829
47.306675,0.108663,-0.187487,0.010446
47.336666,0.097992,0.049969,-0.071866
47.366657,-0.025061,0.249011,0.003627
47.406646,-0.532819,0.334149,0.012898
47.436637,0.034871,0.114748,0.261454
47.466628,0.187701,-0.477510,-0.097440
47.506616,-0.487101,-1.111627,-0.771372
47.536607,-0.888061,-0.018000,-0.760659
47.566598,-0.048076,1.120997,-0.433257
47.606586,0.416531,0.671040,-0.312939
47.636577,-0.405211,-0.489752,-0.397231
47.666568,-0.966287,-0.864639,-0.309489
47.706556,-0.341921,-0.123489,-0.170673
47.736547,-0.114020,0.342561,-0.110961
47.766538,-0.201653,0.251858,-0.039481
47.806526,-0.074261,-0.083430,0.099133
47.836517,0.097636,-0.123316,0.194287
47.866508,0.368931,-0.054355,0.219862
47.906496,0.317816,0.183124,0.283907
47.936487,-0.270265,0.480432,0.479542
47.966478,-0.044638,0.352642,0.600075
48.006466,1.437411,-1.221281,0.337064
48.038957,-0.146884,-1.678303,0.046445
48.068948,-0.854202,-0.167229,0.028873
48.108936,0.824779,1.661182,0.330301
48.138927,1.138285,1.055002,0.473411
48.168918,0.207899,-0.296549,0.449247
48.208906,-0.131837,-0.699062,0.455026
48.238897,0.171129,-0.084250,0.401470
48.268888,0.449147,0.353042,0.226860
48.308876,0.261255,0.153830,-0.049354
48.338867,0.197441,-0.070586,-0.112714
48.368859,0.236797,-0.131141,-0.087395
48.408847,-0.006326,0.059243,-0.043804
48.438838,-0.253907,0.390083,0.143621
48.468829,-0.038294,0.555788,0.338078
48.508817,0.245039,0.129307,0.375107
48.538808,0.222937,-0.371772,0.014967
48.568797,-0.187624,-0.438226,-0.324950
48.598788,-0.092702,0.291603,-0.369415
48.638776,0.600017,0.870535,-0.268296
48.668767,0.619241,0.292631,-0.358364
48.698758,0.081652,-0.427587,-0.395432
48.738746,-0.160779,-0.269255,-0.262834
48.768737,0.200847,0.303387,-0.094446
48.798728,0.372692,0.492123,0.116979
48.838716,0.273866,0.138915,0.269894
48.868707,0.359722,-0.066367,0.375046
48.898699,0.562949,-0.050834,0.477363
48.938687,0.669899,0.004758,0.528786
48.968678,0.594023,0.071495,0.489499
48.998669,0.323573,0.183657,0.420127
49.038657,0.324090,0.080038,0.450444
49.068648,1.370203,-0.650408,0.435653
49.098639,1.320753,-1.452802,0.430648
49.138627,-0.615366,-0.384602,0.498013
49.168618,-0.028154,1.037097,0.531492
49.198609,1.217027,1.416094,0.642507
49.238597,0.877265,0.078864,0.630442
49.268588,-0.060552,-0.667719,0.578301
49.298579,-0.010993,-0.532731,0.544663
49.338567,0.682313,-0.009092,0.366903
49.368558,0.875878,-0.011515,0.174893
49.398549,0.448033,-0.218222,0.041578
49.438537,0.372551,-0.225018,0.012999
49.468528,0.522564,-0.083536,0.025318
49.498519,0.296667,0.131311,0.016814
49.538507,0.006744,0.549756,0.078874
49.568498,0.309179,0.518852,0.194382
49.598489,0.491531,-0.148744,0.041797
49.638477,-0.503390,-0.619346,-0.272531
49.668468,-0.629517,0.194990,-0.370483
49.698459,0.148427,1.018127,-0.455020
49.738447,0.358099,0.807018,-0.505786
49.768439,-0.414546,0.073830,-0.404211
49.798430,-0.843544,-0.236259,-0.328701
49.838418,-0.294976,0.082277,-0.132544
49.868409,0.000927,0.153133,-0.045388
49.898400,-0.092881,-0.028415,0.064721
49.938388,-0.113105,-0.280153,0.277215
49.968379,-0.021843,-0.365146,0.460575
49.998370,0.141892,-0.386820,0.566215
50.038358,0.025947,-0.202825,0.533088
50.068349,-0.135705,0.086464,0.437803
50.098340,0.030850,0.213977,0.425320
50.138328,1.518793,-0.766776,0.425554
50.168319,0.894278,-1.626988,0.336049
50.198310,-0.894563,-0.707341,0.160341
50.238298,0.275231,1.435430,0.056274
50.268289,1.441768,1.729856,0.190006
50.298280,1.216652,0.652557,0.309361
50.338268,-0.056199,-0.790022,0.377611
50.368259,0.055146,-0.859892,0.350178
50.398250,0.529227,-0.485000,0.231387
50.438238,0.793967,-0.248894,0.029505
50.468229,0.496882,-0.348607,-0.074347
50.498220,0.194366,-0.351825,-0.100443
50.538207,0.074694,-0.051392,-0.213851
50.568198,-0.536194,0.572124,-0.416309
50.598189,-0.580184,1.088102,-0.456014
50.638177,0.225114,0.591882,-0.252091
50.668168,0.007975,-0.328948,-0.520525
50.698159,-1.257258,-0.422907,-0.759975
50.738147,-0.921647,0.691662,-0.703912
50.768138,0.026470,1.231976,-0.716451
50.798129,0.026141,0.943054,-0.727545
50.838118,-1.045035,0.005566,-0.476922
50.868109,-1.176740,-0.235177,-0.329657
50.898100,-0.825658,-0.052183,-0.204525
50.938088,-0.437810,0.156530,-0.009444
50.968079,-0.349142,0.054656,0.123133
50.998070,-0.244217,-0.208329,0.274095
51.038058,-0.191933,-0.429331,0.413697
51.068049,-0.310062,-0.204440,0.374538
51.098040,-0.639067,0.401400,0.186474
51.138028,0.142022,0.512118,0.122533
51.168019,1.683172,-0.704667,0.330989
51.198010,0.157579,-1.551417,0.332578
51.237998,-1.392771,-0.598724,-0.076657
51.267989,0.565889,0.567563,-0.397119
51.297980,1.962556,0.750977,-0.046204
51.337968,0.309934,-0.367258,0.389396
51.367959,-0.984780,-0.777051,0.500497
51.397950,-0.500654,-0.449249,0.569104
51.437938,0.539287,0.111251,0.232019
51.467929,0.455291,0.217764,-0.008206
51.497920,0.161507,0.154973,0.007752
51.537909,0.201950,0.058579,-0.098511
51.567900,0.058831,0.207749,-0.105382
51.597891,-0.341959,0.495403,-0.077770
51.637879,-0.408164,0.781396,-0.088885
51.667870,0.155439,0.547895,-0.099061
51.697862,0.420095,-0.362428,-0.252707
51.737850,-0.937320,-0.992206,-0.583128
51.767841,-1.106829,-0.174928,-0.800625
51.797832,-0.110695,0.780369,-0.879995
51.837820,0.246031,0.775884,-0.770345
51.867811,-0.630554,0.109127,-0.612154
51.897802,-1.396332,-0.186573,-0.538316
51.937790,-0.684282,0.193889,-0.285063
51.967781,-0.263190,0.257687,-0.078891
51.997772,-0.388477,-0.111237,0.003566
52.041510,-0.568602,-0.478853,0.162919
52.071501,-0.316426,-0.520624,0.340252
52.111490,-0.207143,-0.475186,0.363968
52.141481,-0.397519,-0.147744,0.228488
52.171472,-0.219308,0.391409,0.021149
52.201463,0.079890,0.628316,0.008604
52.241451,0.590455,-0.061180,0.301449
52.271442,0.692265,-1.022643,0.445965
52.311430,-0.293467,-0.798397,0.271318
52.341421,0.032676,0.287987,0.253110
52.371412,0.740552,0.834658,0.249411
52.411400,0.658621,0.168042,0.128015
52.441391,0.185897,-0.356438,0.104611
52.471382,0.163066,-0.355733,0.160793
52.511370,0.503404,-0.029316,0.164741
52.541361,0.757968,-0.036774,0.096805
52.571352,0.607607,-0.156001,-0.013528
52.601342,0.428265,-0.153792,-0.051184
52.631333,0.291469,-0.021555,-0.007234
52.671321,0.079155,0.234608,-0.059212
52.701312,-0.045117,0.469454,-0.130413
52.731303,-0.202452,0.693047,-0.186188
52.771291,0.003225,0.633294,-0.114459
52.801282,0.061248,0.028588,-0.105127
52.831273,-0.102780,-0.778632,-0.161462
52.871261,-1.204651,-0.263425,-0.544990
52.901252,-0.910698,0.813591,-0.711952
52.931243,-0.265168,1.428613,-0.697341
52.971231,-0.113394,0.707022,-0.609057
53.001223,-0.865779,-0.070273,-0.531161
53.031214,-1.257824,-0.265280,-0.383706
53.071202,-0.697156,0.069659,-0.163584
53.101193,-0.432901,0.145845,-0.078372
53.131184,-0.448215,-0.063898,-0.034978
53.171172,-0.518136,-0.330138,0.103944
53.201163,-0.173348,-0.404294,0.172373
53.231154,-0.064935,-0.352135,0.229560
53.271142,-0.404637,-0.016369,0.150443
53.301133,-0.004338,0.278078,0.035278
53.331124,0.394919,0.264757,0.081456
53.371112,0.478344,-0.516234,0.120421
53.401103,0.739163,-1.155320,0.105274
53.431094,0.357941,-0.919308,0.211942
53.471082,-0.279002,0.527538,0.393496
53.501073,0.328150,0.956257,0.263990
53.531064,0.861322,0.495470,0.119045
53.571053,0.365121,-0.448649,0.254101
53.601044,-0.008100,-0.593650,0.372320
53.631035,-0.003073,-0.280485,0.327784
53.671023,0.432831,0.052344,0.230560
53.701014,0.587774,-0.083233,0.133741
53.731005,0.468323,-0.343754,0.044439
53.770993,0.178390,-0.337296,0.018889
53.800984,0.216712,-0.070254,0.031355
53.830975,0.116659,0.279774,0.018774
53.870963,-0.070222,0.671612,-0.142737
53.900954,0.209502,0.624586,-0.141834
53.930945,0.446730,0.132444,-0.110133
53.970933,-0.187632,-0.488391,-0.210825
54.000924,-0.830909,0.015129,-0.334432
54.030915,-0.236757,0.697535,-0.449101
54.070903,0.547895,0.853863,-0.472273
54.100894,0.380747,0.151901,-0.345276
54.130886,-0.203859,-0.516433,-0.107784
54.170874,-0.254899,-0.482036,0.158037
54.200865,0.110753,-0.113556,0.214458
54.230856,0.416146,0.036504,0.258921
54.270844,0.573550,-0.180710,0.406451
54.300835,0.610892,-0.351461,0.556078
54.330826,0.686420,-0.304460,0.768501
54.370814,0.892122,-0.138087,0.977263
54.400805,1.078579,-0.096800,0.986784
54.430796,1.051828,0.011743,0.952680
54.470784,1.202389,-0.070881,1.129306
54.500775,1.855760,-0.696122,1.141541
54.530766,1.709284,-1.204084,1.129664
54.570754,0.485545,-0.464073,1.158207
54.600745,1.166968,0.423770,1.001708
54.630736,2.176587,0.641782,0.892673
54.670724,1.747103,-0.095481,0.980468
54.700716,1.022592,-0.496715,1.109074
54.730707,0.931922,-0.345167,1.095507
54.770695,1.381189,0.022336,0.977628
54.800686,1.315676,-0.061099,0.887153
54.830677,1.102807,-0.241394,0.788262
54.870665,0.835666,-0.252138,0.692447
54.900656,0.980467,-0.149831,0.584009
54.930647,0.878579,0.007149,0.486124
54.970635,0.607193,0.412853,0.424856
55.000626,0.967637,0.518859,0.520229
55.030617,1.587802,-0.006072,0.489563
55.070605,0.720088,-0.666787,0.451231
55.100596,0.073600,-0.057713,0.546701
55.130587,0.584986,0.883669,0.632145
55.170575,1.215084,1.181432,0.600509
55.200566,1.171474,0.468967,0.646868
55.230557,0.743641,-0.361742,0.671459
55.270545,0.581868,-0.629436,0.678144
55.300536,0.912684,-0.281714,0.656343
55.330528,1.255389,0.022835,0.718810
55.370516,1.375648,-0.080190,0.755451
55.400507,1.307288,-0.113618,0.862637
55.430498,1.437836,0.026478,1.125359
55.470486,1.629995,-0.008586,1.383242
55.500477,1.877879,-0.222882,1.381229
55.530468,1.926979,-0.171801,1.403394
55.570456,2.015064,0.110475,1.469203
55.600447,2.548214,-0.373378,1.472592
55.630438,2.477654,-1.149695,1.394247
55.670426,1.198460,-1.076429,1.536429
55.700417,1.251387,-0.244347,1.506619
55.730408,1.993842,0.293729,1.357868
55.770396,2.030731,0.267243,1.183632
55.800387,1.479019,0.110000,1.214048
55.830378,1.166526,0.146018,1.237837
55.870367,1.288776,0.225481,1.154636
55.900358,1.253965,0.067663,1.011283
55.930349,1.099211,-0.121738,0.963234
55.970337,0.906356,-0.186562,0.891896
56.000328,0.939594,-0.134464,0.693411
56.042817,1.126488,-0.111719,0.516787
56.072808,0.964428,-0.009656,0.529496
56.102799,0.633089,0.208421,0.669457
56.142787,0.896573,0.118658,0.811117
56.172778,0.724219,-0.091239,0.519781
56.202769,0.369887,0.062124,0.328071
56.242757,0.696511,0.802846,0.464986
56.272748,0.854754,0.888306,0.559393
56.302739,0.918449,0.386746,0.523608
56.342727,0.757913,-0.482413,0.474401
56.372718,0.663231,-0.684480,0.458828
56.402709,0.750819,-0.454013,0.435894
56.442697,0.975981,-0.086339,0.521283
56.472688,0.898039,-0.077201,0.641197
56.502679,0.818339,-0.213827,0.740109
56.542670,0.904848,-0.278696,0.754870
56.572660,0.853836,-0.108398,0.788418
56.602651,1.048387,0.135359,0.880552
56.632642,1.152455,0.388731,0.837970
56.672630,0.933121,0.631229,0.814925
56.702621,0.822336,0.565599,0.883587
56.732612,1.013752,0.187803,0.669875
56.772600,1.366908,-0.817419,0.466947
56.802591,0.177348,-0.731159,0.549993
56.832582,0.018233,-0.057374,0.561693
56.872570,1.092243,0.292782,0.353285
56.902562,1.097646,-0.218188,0.200959
56.932553,0.187560,-0.642505,0.179426
56.972541,0.020653,-0.248937,0.221908
57.002532,0.383714,0.157845,0.193863
57.032523,0.523424,0.206124,0.131249
57.072511,0.121417,-0.098640,0.105552
57.102502,-0.008234,-0.105918,-0.019673
57.132493,0.154112,0.026279,-0.203888
57.172481,0.057228,0.215807,-0.324396
57.202472,-0.336081,0.333875,-0.450466
57.232463,-0.675410,0.592535,-0.662594
57.272451,-0.124838,0.509608,-0.587726
57.302442,0.109430,-0.222293,-0.703031
57.332433,-0.466019,-0.747568,-0.903725
57.372421,-1.319622,0.259023,-0.957432
57.402412,-0.816418,1.224394,-0.731002
57.432403,-0.325281,1.324314,-0.562228
57.472392,-0.605567,0.165083,-0.404395
57.502383,-1.279531,-0.492474,-0.361126
57.532374,-1.154216,-0.511599,-0.247569
57.572359,-0.680955,-0.246758,-0.172832
57.602350,-0.501140,-0.221501,-0.221478
57.632341,-0.514055,-0.322731,-0.223721
57.672329,-0.478885,-0.412597,-0.233171
57.702320,-0.343787,-0.290517,-0.243181
57.732311,-0.285200,0.068815,-0.180630
57.772299,-0.099355,0.709176,-0.058728
57.802290,-0.000474,0.889012,0.085635
57.832281,0.009742,0.666721,0.338805
57.872269,0.858603,-0.404184,0.534703
57.902260,0.895956,-1.254738,0.570761
57.932251,-0.274183,-0.953040,0.615458
57.972239,-0.083403,0.375135,0.545590
58.002230,1.111654,0.546325,0.339690
58.032221,0.864384,-0.075285,0.231640
58.072209,-0.142593,-0.486643,0.194246
58.102201,-0.007692,-0.056417,0.241869
58.132192,0.331952,0.371180,0.210538
58.172180,0.273520,0.329881,0.080515
58.202171,0.083874,0.093627,0.027015
58.232162,0.186725,-0.102816,-0.032197
58.272150,0.134933,-0.245515,-0.154594
58.302141,0.125695,-0.200519,-0.205841
58.332132,0.025699,0.059767,-0.191908
58.372120,-0.306793,0.636063,-0.215592
58.402111,0.309568,0.650210,-0.088010
58.432102,0.426458,0.089827,-0.236609
58.472090,-0.435528,-0.633655,-0.482127
58.502081,-1.125269,-0.014161,-0.619278
58.532072,-0.289444,0.677881,-0.538153
58.572060,0.330601,0.550784,-0.443878
58.602051,-0.252968,-0.205974,-0.319157
58.632042,-1.124434,-0.498271,-0.182046
58.672030,-0.886531,-0.094745,0.004844
58.702021,-0.441051,0.081172,0.095540
58.732013,-0.385193,0.053792,0.061029
58.772001,-0.443206,-0.033270,0.176250
58.801992,-0.336882,0.029696,0.266520
58.831983,-0.248250,0.126900,0.230221
58.871971,-0.120541,0.320035,0.205353
58.901962,0.171847,0.357230,0.244395
58.931953,0.412039,0.209787,0.184897
58.971941,0.146704,-0.066999,-0.022060
59.001932,0.683596,-0.433146,0.053801
59.031923,1.884590,-1.035754,0.267296
59.071911,0.231130,-0.903400,0.492925
59.101902,-0.896921,0.136400,0.599484
59.131893,0.001478,0.815701,0.561096
59.171881,1.443607,0.126661,0.590842
59.201872,0.731055,-0.893830,0.570007
59.231863,-0.181689,-1.306468,0.507567
59.271851,0.095764,-0.722418,0.252358
59.301842,0.616212,-0.115751,0.116040
59.331833,0.812463,0.075759,0.140114
59.371821,0.169734,0.085443,0.086528
59.401812,-0.057879,0.158928,-0.000098
59.431803,-0.095407,0.383050,0.024167
59.471792,-0.614525,0.719669,0.078291
59.501783,-0.525583,0.732149,0.153067
59.531774,0.124513,0.348480,0.069789
59.571761,0.077726,-0.619439,-0.162575
59.601752,-1.144388,-0.471487,-0.546782
59.631743,-0.901746,0.497856,-0.704043
59.671731,0.260266,1.360614,-0.701059
59.701722,0.445361,0.817538,-0.694930
59.731713,-0.324148,-0.057979,-0.565040
59.771701,-0.949841,-0.465005,-0.403748
59.801692,-0.596362,-0.235796,-0.270265
59.831683,-0.235629,0.014786,-0.103374
59.871671,-0.261663,0.069285,0.116149
59.901662,-0.242910,-0.035475,0.245364
59.931653,0.041615,-0.138292,0.376362
59.971641,0.190901,-0.254642,0.420604
60.001632,-0.021274,-0.096235,0.422658
60.042871,-0.309112,0.508501,0.398624
60.072862,0.493971,0.431304,0.205251
60.102853,1.597742,-0.416754,0.154520
60.142841,-0.105424,-0.855897,0.253143
60.172832,-0.913013,0.204673,0.271805
60.202823,0.065935,1.265203,0.379720
60.242812,1.249763,0.930059,0.510218
60.272803,0.394594,-0.161377,0.350356
60.302794,-0.504186,-0.655680,0.253831
60.342782,0.132686,-0.260358,0.157704
60.372773,0.685750,0.023179,-0.008592
60.402764,0.552890,-0.058922,-0.104163
60.442752,0.064490,-0.222664,-0.104634
60.472743,0.073133,-0.147396,-0.113700
60.502734,-0.071047,-0.050114,-0.093569
60.542723,-0.614084,0.202514,-0.060003
60.572712,-0.400597,0.397823,0.082347
60.602703,0.083494,0.340259,0.033163
60.632694,0.357977,-0.190978,-0.273754
60.672682,-0.935506,-0.425560,-0.606501
60.702673,-0.892575,0.151442,-0.635019
60.732665,-0.152614,0.739216,-0.573102
60.772653,-0.104516,0.532632,-0.540658
60.802644,-0.821463,-0.022005,-0.571173
60.832635,-1.144222,-0.241547,-0.624214
60.872623,-0.581202,0.074301,-0.489280
60.902614,-0.353336,0.258360,-0.258850
60.932605,-0.369012,0.158585,-0.029658
60.972593,-0.384407,-0.282403,0.218647
61.002584,-0.275860,-0.633459,0.342613
61.032575,-0.265895,-0.590254,0.323767
61.072563,-0.615458,0.247469,0.369868
61.102554,-0.387956,0.696684,0.479091
61.132545,0.869826,0.189668,0.416040
61.172533,0.743719,-1.311368,0.342259
61.202524,-0.838226,-1.078755,0.226680
61.232515,-0.619241,0.160001,0.024994
61.272503,0.882258,1.148094,0.101726
61.302494,1.005032,0.481682,0.173238
61.332485,0.077303,-0.468015,0.108087
61.372473,-0.382476,-0.592757,0.044488
61.402464,0.079879,-0.120977,-0.088498
61.432455,0.524303,0.186610,-0.247898
61.472443,0.152717,0.135685,-0.267195
61.502434,-0.021156,0.096324,-0.199361
61.532425,-0.040552,0.159605,-0.157787
61.572417,-0.599941,0.345325,-0.238943
61.602408,-0.659009,0.613209,-0.172990
61.632399,-0.233620,0.685979,-0.262163
61.672387,0.512218,-0.237352,-0.749647
61.702378,-0.520871,-0.758987,-0.877896
61.732369,-0.938200,-0.421443,-0.597576
61.772357,-0.102084,0.302891,-0.385068
61.802348,-0.028565,0.284364,-0.378105
61.832339,-0.699721,-0.117902,-0.416344
61.872327,-0.963986,-0.310478,-0.369165
61.902318,-0.595037,-0.020317,-0.326816
61.932309,-0.179072,0.191138,-0.209501
61.972297,-0.166491,0.007046,-0.012332
62.002288,-0.206620,-0.258115,0.071961
62.032279,-0.162152,-0.308592,0.188961
62.072267,0.141133,-0.124069,0.294911
62.102258,0.366263,0.008138,0.271914
62.132249,0.032032,0.097153,0.224747
62.172237,-0.087892,-0.016358,0.103278
62.202229,1.139517,-0.514234,0.153184
62.232220,1.260579,-1.130427,0.352357
62.272207,-0.958495,-0.179076,0.306391
62.302199,-0.909095,1.223402,0.292659
62.332190,0.334333,1.795991,0.423248
62.372178,0.973666,0.632082,0.301025
62.402169,-0.197067,-0.462944,0.034864
62.432159,-0.561931,-0.784730,-0.069793
62.472148,0.281999,-0.434995,-0.234948
62.502139,0.553765,-0.207126,-0.301924
62.532130,0.338156,-0.149190,-0.208823
62.572114,-0.042139,0.091817,-0.098122
62.602105,0.101425,0.268811,-0.140738
62.632096,-0.219375,0.351535,-0.194490
62.672084,-0.895400,0.543804,-0.236118
62.702075,-0.432925,0.532507,-0.158360
62.732066,0.225244,0.042231,-0.372911
62.772054,-0.569686,-0.928851,-0.815901
62.802045,-1.198988,-0.536818,-0.874232
62.832036,-0.580721,0.366256,-0.775063
62.872024,0.221994,0.745817,-0.679203
62.902015,-0.269545,0.174198,-0.645127
62.932006,-1.179592,-0.395137,-0.622755
62.971994,-0.989488,-0.332469,-0.394959
63.001985,-0.487085,0.015804,-0.155742
63.031976,-0.348227,0.129102,0.028204
63.071964,-0.402629,-0.080155,0.161657
63.101955,-0.285298,-0.228213,0.282863
63.131946,0.002534,-0.337695,0.329211
63.171934,-0.080888,-0.144026,0.211690
63.201925,-0.466645,0.336686,0.097900
63.231916,-0.328551,0.478044,0.017986
63.271904,1.500446,-0.616929,-0.170269
63.301895,1.147481,-1.438240,-0.210525
63.331886,-0.996005,-0.629502,-0.065296
63.371874,-0.765322,1.535138,0.213820
63.401865,0.828480,2.015751,0.383598
63.431856,1.152309,1.025597,0.390432
63.471844,-0.375086,-0.722950,0.149911
63.501835,-0.693610,-0.930773,0.216373
63.531826,-0.088788,-0.345081,0.240828
63.571813,0.410536,0.324846,0.019100
63.601804,0.178939,0.294263,-0.082471
63.631795,0.039663,0.125016,-0.039223
63.671783,-0.009441,0.013359,-0.100477
63.701774,-0.419422,0.140513,-0.063418
63.731765,-0.377906,0.371719,0.175569
63.771753,-0.120092,0.298119,0.243535
63.801744,0.176398,-0.177455,-0.154797
63.831735,-0.376320,-0.629469,-0.494466
63.871723,-0.720032,-0.012241,-0.563302
63.901714,-0.026750,0.624174,-0.503261
63.931705,0.487007,0.562308,-0.554994
63.971693,-0.296993,-0.327234,-0.597690
64.001684,-0.868967,-0.498037,-0.470887
64.035425,-0.429777,-0.031290,-0.265392
64.075413,0.159057,0.376729,0.005122
64.105404,0.126382,0.157788,0.181216
64.135395,0.135422,-0.265421,0.330518
64.175383,0.242280,-0.593546,0.554240
64.205374,0.269249,-0.447640,0.622630
64.235365,-0.076923,0.064854,0.645387
64.275353,0.374767,0.095797,0.604115
64.305344,1.511499,-0.813549,0.267906
64.335335,1.020632,-1.600637,0.171589
64.375323,-0.745607,-0.401990,0.299040
64.405314,0.037576,1.005350,0.244874
64.435305,1.348978,1.331042,0.268380
64.475293,1.049633,0.103742,0.453628
64.505284,-0.028794,-0.722879,0.670698
64.535275,-0.250916,-0.642532,0.715730
64.575264,0.534920,0.067306,0.501974
64.605253,0.764782,0.153897,0.258298
64.635244,0.528746,-0.114199,0.113407
64.665235,0.328093,-0.279529,0.165913
64.705223,0.261051,-0.007160,0.238304
64.735214,0.076671,0.369289,0.327771
64.765205,-0.052160,0.723099,0.413360
64.805193,0.223483,0.509627,0.324508
64.835184,0.314210,0.108684,-0.096688
64.865175,0.214454,-0.391333,-0.439548
64.905163,0.033155,-0.245542,-0.581224
64.935154,0.035049,0.362348,-0.479353
64.965145,0.306698,0.662988,-0.323088
65.005133,0.182992,0.255539,-0.212105
65.035124,-0.196815,-0.347678,-0.193748
65.065115,-0.518299,-0.529148,-0.153894
65.105103,-0.353469,-0.109219,-0.087140
65.135094,-0.136253,0.139161,-0.050573
65.165085,-0.145520,0.067999,-0.027415
65.205073,-0.187221,-0.200061,0.071228
65.235064,-0.195209,-0.164848,0.186573
65.265055,-0.069111,-0.002514,0.266757
65.305043,0.007216,0.111340,0.345905
65.335034,0.121494,0.074415,0.291947
65.365025,0.188615,0.108910,0.142513
65.405013,0.373742,0.157554,0.035639
65.435004,1.041507,-0.079932,0.080888
65.464995,1.196057,-0.707598,0.398797
65.504983,0.000589,-0.704280,0.365830
65.534974,0.048514,0.134878,0.256030
65.564964,0.798312,0.817965,0.455291
65.604952,1.537471,0.224759,0.580119
65.634943,0.801607,-0.599851,0.593318
65.664934,0.287032,-0.773082,0.538740
65.704922,0.642161,-0.079297,0.572430
65.734913,0.936749,0.237839,0.649893
65.764904,0.800160,0.072484,0.631164
65.804892,0.316104,-0.140425,0.403553
65.834883,0.100571,0.075378,0.172921
65.864874,-0.286295,0.618071,0.005372
65.904861,0.400460,0.935166,0.285111
65.934852,0.773619,0.414451,0.193957
65.964843,0.412077,-0.664706,-0.117069
66.004831,-0.706895,-0.716765,-0.565291
66.034822,-0.350201,0.293654,-0.505703
66.064813,0.524352,0.998722,-0.358921
66.104801,0.460910,0.475369,-0.263691
66.134792,-0.337263,-0.320188,-0.168896
66.164783,-0.625968,-0.385887,0.008778
66.204771,-0.084682,0.204674,0.272581
66.234762,0.341284,0.476059,0.422559
66.264753,0.465568,0.331996,0.531350
66.304741,0.479187,-0.183412,0.675117
66.334732,0.634804,-0.378086,0.733582
66.364723,0.728886,-0.285333,0.729759
66.404711,0.837339,0.130435,0.735109
66.434702,0.947943,0.311474,0.850992
66.464693,1.215650,0.111731,0.895580
66.504681,1.763720,-0.789267,0.810343
66.534672,1.475465,-1.084881,0.835846
66.564664,0.819455,-0.510766,0.931010
66.604652,0.723508,0.894831,0.973201
66.634643,1.347661,1.133057,0.913052
66.664634,1.551121,0.412498,0.784566
66.704622,0.756602,-0.719543,0.707777
66.734613,0.537232,-0.699387,0.657167
66.764604,0.870005,-0.187293,0.513605
66.804592,1.231718,0.184373,0.450049
66.834583,0.905558,0.044017,0.475384
66.864573,0.519683,-0.057218,0.563335
66.904561,0.625875,0.144979,0.691337
66.934552,0.462740,0.411271,0.718105
66.964543,0.900916,0.529885,0.783263
67.004531,1.329327,0.340174,0.644519
67.034522,1.100435,0.099338,0.373954
67.064513,0.855694,0.021626,0.133840
67.104501,1.140106,0.677670,-0.072273
67.134492,1.321746,1.340755,-0.095890
67.164483,1.272782,1.382163,-0.088705
67.204471,1.041522,0.610267,0.159056
67.234462,1.039193,-0.220082,0.406421
67.264453,0.968750,-0.680636,0.698772
67.304441,0.888721,-0.612614,0.946291
67.334432,1.105454,-0.422848,1.046938
67.364423,1.448284,-0.300724,1.029879
67.404411,1.568413,-0.270359,0.919606
67.434402,1.499588,-0.276321,0.854820
67.464393,1.641743,-0.253835,0.854770
67.504381,1.854618,-0.167429,0.906123
67.534372,1.854566,-0.176346,0.925030
67.564363,1.920111,-0.252904,0.990592
67.604350,2.042811,-0.372106,1.059642
67.634341,1.971081,-0.300235,1.144868
67.664332,1.879721,-0.089023,1.252390
67.704320,2.089262,0.007755,1.479214
67.734311,2.139812,-0.225805,1.466455
67.764302,1.893055,-0.433158,1.382586
67.804290,1.646943,-0.382051,1.277926
67.834281,1.910647,-0.320735,1.154721
67.864272,1.993493,-0.391120,1.062247
67.904260,1.696290,-0.613832,1.078153
67.934251,1.554983,-0.675764,1.201463
67.964242,1.506616,-0.520640,1.347185
68.004230,1.500740,-0.050584,1.393415
68.035472,1.696590,0.233726,1.440915
68.075460,1.771227,0.216688,1.549581
68.105451,1.742454,-0.018650,1.561893
68.135442,1.688892,-0.235546,1.499396
68.175430,1.610620,-0.228680,1.379887
68.205421,1.549763,-0.092819,1.278380
68.235412,1.369913,-0.002005,1.131216
68.275400,1.070935,0.065824,0.868096
68.305391,1.034099,0.116735,0.705990
68.335381,0.993154,0.119916,0.615383
68.375369,0.738617,0.069639,0.533184
68.405360,0.393116,0.144587,0.481996
68.435351,0.597899,0.307865,0.466298
68.475339,0.816506,0.257585,0.520611
68.505330,0.571568,0.151889,0.306113
68.535321,0.499972,0.139083,0.100747
68.575311,0.564472,0.279759,-0.088659
68.605302,0.379130,0.370047,-0.092160
68.635293,0.432902,0.311161,0.002778
68.675281,0.455523,-0.055592,0.094833
68.705272,0.195589,-0.286545,0.118111
68.735263,-0.053828,-0.275447,0.246000
68.775251,-0.031813,-0.024910,0.341292
68.805242,-0.000664,0.021713,0.278856
68.835233,-0.105757,-0.085932,0.215001
68.875221,0.008444,-0.251138,0.233784
68.905212,0.157447,-0.288813,0.307081
68.935203,0.148228,-0.304345,0.328767
68.975191,0.082205,-0.182401,0.325252
69.005181,0.248428,0.009474,0.296651
69.035172,0.449414,0.179876,0.166253
69.075160,0.064452,0.422891,0.033260
69.105151,0.240505,0.385043,-0.047877
69.135142,0.939371,-0.232851,0.072036
69.175130,0.263655,-0.863034,0.346385
69.205121,-0.530868,-0.165650,0.415252
69.235112,-0.106525,0.609165,0.471629
69.275100,0.932299,0.504128,0.363728
69.305091,0.520517,-0.272693,0.173640
69.335082,-0.200007,-0.618409,0.061101
69.375070,-0.007511,-0.203429,-0.049913
69.405061,0.254938,0.011781,-0.117687
69.435052,0.148730,0.057446,-0.113077
69.475040,-0.269204,0.089644,-0.205855
69.505030,-0.350325,0.133927,-0.396896
69.535021,-0.574844,0.212939,-0.431200
69.575006,-1.355835,0.572077,-0.598281
69.604997,-1.241367,0.684451,-0.561068
69.634988,-1.048653,0.531164,-0.683728
69.674976,-1.103381,-0.121381,-1.075039
69.704967,-1.393706,-0.215769,-1.188353
69.734958,-1.497067,0.341424,-1.067275
69.774946,-1.093550,0.831411,-0.857892
69.804937,-1.062379,0.562514,-0.760760
69.834928,-1.478936,0.042180,-0.798091
69.874916,-1.565034,-0.156959,-0.737746
69.904907,-1.172851,-0.076598,-0.548913
69.934898,-0.962711,-0.055976,-0.343577
69.974886,-0.953305,-0.245194,-0.164366
70.004876,-0.848018,-0.404481,-0.001100
70.034867,-0.570042,-0.452363,0.136937
70.074855,-0.426820,-0.339724,0.129599
70.104846,-0.930658,-0.031906,0.016276
70.134837,-0.767869,0.254875,-0.249904
70.174825,0.680837,-0.394593,-0.490133
70.204816,-0.115961,-0.891982,-0.332756
70.234807,-0.955720,-0.325668,-0.218937
70.274795,-0.057240,0.916533,-0.144789
70.304786,0.731071,0.822916,0.016825
70.334777,0.668916,-0.231106,0.023929
70.374765,-0.156759,-1.263503,0.048446
70.404756,-0.007074,-1.134139,0.084645
70.434746,0.453979,-0.650082,0.051327
70.474734,0.597864,-0.217258,0.006257
70.504725,0.176800,-0.044405,-0.064938
70.534716,-0.065418,0.158059,-0.163920
70.574704,-0.106573,0.379571,-0.209436
70.604695,-0.334816,0.433950,-0.119783
70.634686,-0.742328,0.417684,-0.086493
70.674674,-0.501308,0.452386,-0.025394
70.704665,0.085185,-0.117724,-0.056330
70.734656,0.118023,-1.034804,-0.501664
70.774644,-1.390241,-0.916194,-1.216861
70.804635,-1.280113,0.276108,-0.997551
70.834625,-0.189839,1.073825,-0.591412
70.874613,-0.146741,0.771713,-0.465107
70.904604,-1.021894,-0.044753,-0.463883
70.934595,-1.215673,-0.331979,-0.322248
70.974583,-0.493212,0.144390,-0.164714
71.004574,-0.298047,0.426845,-0.095795
71.034565,-0.253471,0.305526,-0.051048
71.074553,-0.152835,0.047392,0.039019
71.104544,-0.073244,0.106976,0.049338
71.134535,0.136850,0.275773,-0.000463
71.174523,0.128026,0.403750,0.044349
71.204514,-0.130338,0.406942,0.243062
71.234504,0.280781,0.197327,0.275397
71.274492,1.006041,-0.780609,0.384723
71.304483,-0.215621,-0.782643,0.339306
71.334474,-0.394191,0.206808,0.124005
71.374462,0.732557,1.128477,0.212950
71.404453,1.047835,0.641434,0.325414
71.434444,0.277867,-0.219764,0.353147
71.474432,-0.104695,-0.399672,0.357757
71.504423,0.407573,-0.053954,0.195019
71.534414,0.700836,0.083451,-0.025305
71.574402,0.266619,-0.185814,-0.048054
71.604392,0.094399,-0.247836,-0.039839
71.634383,0.102883,-0.074987,-0.020718
71.674371,-0.266034,0.273489,0.003803
71.704362,-0.042311,0.342062,0.228586
71.734353,0.433081,0.155100,0.031264
71.774341,-0.199608,-0.441082,-0.576718
71.804332,-0.807152,-0.071631,-0.603625
71.834323,-0.303157,0.492756,-0.378371
71.874311,0.208855,0.395691,-0.444602
71.904302,-0.266420,-0.335215,-0.600313
71.934292,-0.759784,-0.824199,-0.499539
71.974280,-0.673102,-0.553638,-0.328757
72.004271,-0.310744,-0.124575,-0.247626
72.036762,-0.167253,0.104291,-0.148849
72.076750,-0.183893,-0.183868,0.001137
72.106741,-0.140414,-0.352225,0.108259
72.136732,0.059056,-0.262003,0.195770
72.176720,0.172832,0.018366,0.301882
72.206711,0.014482,0.260477,0.327483
72.236702,-0.090771,0.393536,0.339581
72.276689,1.293147,-0.085773,0.490755
72.306680,1.672969,-0.831986,0.755534
72.336671,0.227533,-0.641981,0.900016
72.376659,0.097831,0.734378,0.946360
72.406650,1.295183,1.258715,0.969037
72.436641,1.837323,0.628640,0.832934
72.476629,0.814980,-0.565083,0.618356
72.506620,0.514800,-0.707337,0.587282
72.536611,0.837712,-0.363112,0.554855
72.576599,1.259032,-0.032884,0.376811
72.606588,1.145553,-0.089431,0.349376
72.636579,0.826041,-0.138040,0.347461
72.666570,0.815851,-0.083306,0.254332
72.706558,0.771941,0.153836,0.260787
72.736549,0.191458,0.672945,0.337269
72.766540,0.588704,1.051508,0.488704
72.806528,1.815219,0.897435,0.230537
72.836519,1.725477,0.334093,-0.079990
72.866510,0.444380,0.096858,-0.029343
72.906498,-0.475185,-0.000011,-0.056873
72.936488,-0.472369,-0.003754,-0.176267
72.966479,-0.825482,0.091804,-0.181867
73.006467,-1.321951,-0.022440,-0.303843
73.036458,-1.379199,-0.015112,-0.354315
73.066449,-1.354131,0.149995,-0.305761
73.106437,-1.253076,0.363526,-0.107861
73.136428,-0.966385,0.356669,0.020810
73.166419,-0.581966,0.178638,0.044236
73.206407,-0.227292,-0.260078,0.101550
73.236397,-0.158833,-0.436679,0.170444
73.266388,-0.246081,-0.339194,0.147443
73.306376,-0.437789,0.148570,0.153852
73.336367,0.533154,-0.066352,0.304869
73.366358,1.329753,-1.047269,0.333677
73.406346,-0.444571,-1.098368,-0.210306
73.436337,-0.708429,0.068310,-0.319484
73.466328,0.281578,1.089252,-0.216416
73.506316,0.831659,0.980711,-0.057069
73.536307,0.100678,0.441191,0.096366
73.566296,-0.267375,0.086603,0.221964
73.606284,0.064857,0.115125,0.184089
73.636275,0.371817,0.134298,0.096091
73.666266,0.243761,-0.038275,0.050187
73.706254,0.046180,-0.240427,-0.164658
73.736245,0.008499,-0.082685,-0.215096
73.766236,-0.412514,0.285327,-0.122540
73.806224,-0.379359,0.637898,-0.044009
73.836215,0.298223,0.315262,-0.193238
73.866205,0.608574,-0.626726,-0.372092
73.906193,-0.992463,-0.759411,-0.582148
73.936184,-0.745735,0.103670,-0.586058
73.966175,0.129326,0.768349,-0.608145
74.006163,-0.043381,0.450663,-0.518692
74.036154,-0.719375,-0.154634,-0.364065
74.066145,-0.901806,-0.396651,-0.360752
74.106133,-0.458650,-0.079802,-0.322859
74.136124,-0.120447,0.171459,-0.184112
74.166114,0.001773,0.118024,0.036901
74.206102,0.140320,-0.202760,0.347113
74.236093,0.214369,-0.355185,0.532461
74.266084,0.122613,-0.217027,0.458078
74.306072,-0.250881,0.432308,0.353285
74.336063,-0.028791,0.605820,0.328422
74.366054,1.591380,-0.266402,0.226118
74.406042,0.655543,-1.510875,0.326681
74.436032,-0.923065,-0.836312,0.449805
74.466023,-0.190070,0.402383,0.254461
74.506011,1.419048,0.826498,0.318634
74.536002,1.001034,-0.072569,0.431884
74.565994,-0.241447,-0.771014,0.442759
74.605982,-0.288447,-0.427106,0.478877
74.635973,0.520345,0.007930,0.340770
74.665964,0.750714,0.054915,0.048977
74.705952,0.332501,-0.168484,-0.129552
74.735942,0.285184,-0.198363,-0.054307
74.765933,0.264008,-0.122539,-0.063797
74.805921,-0.173232,0.241904,0.004894
74.835912,-0.429507,0.703979,0.061622
74.865903,-0.003320,0.993024,0.200306
74.905891,0.596920,0.710316,-0.071118
74.935882,0.143440,0.003058,-0.375537
74.965873,-0.842676,-0.231269,-0.586774
75.005860,-0.595009,0.089682,-0.642133
75.035851,0.092620,0.143727,-0.635948
75.065842,-0.068206,-0.184016,-0.608816
75.105830,-0.867466,-0.568639,-0.471185
75.135821,-0.741933,-0.439769,-0.413600
75.165812,-0.360734,-0.187981,-0.296997
75.205800,-0.176405,0.042837,-0.003896
75.235791,-0.219385,0.041764,0.203428
75.265782,-0.125003,0.006534,0.376163
75.305769,0.048589,-0.088157,0.499518
75.335760,0.061829,-0.089398,0.463070
75.365751,-0.151603,0.170954,0.281558
75.405739,-0.110683,0.535448,0.075737
75.435730,0.764227,0.168485,-0.094427
75.465721,1.591429,-0.927699,-0.016128
75.505709,0.038349,-1.192289,0.098526
75.535699,-0.560043,-0.001612,0.070914
75.565690,0.293470,1.282036,0.163619
75.605678,1.523403,1.224960,0.369462
75.635669,1.014382,0.047864,0.318488
75.665660,-0.028149,-0.868634,0.271101
75.705648,-0.021984,-0.843880,0.175486
75.735639,0.435409,-0.319275,0.028026
75.765630,0.650046,0.106717,-0.036152
75.805617,0.424117,0.195105,-0.013252
75.835608,0.112281,0.084114,0.062666
75.865599,-0.092284,0.015004,0.033502
75.905587,-0.222597,0.121928,0.031522
75.935578,-0.460170,0.317918,0.097223
75.965569,-0.627158,0.533558,-0.028795
76.005557,-0.220782,0.551714,-0.182695
76.038048,0.089616,-0.103811,-0.494132
76.078036,-0.803039,-0.714545,-0.897269
76.108027,-1.288071,-0.080800,-1.029423
76.138017,-0.754936,0.583565,-0.914257
76.178005,0.231832,0.320931,-0.712373
76.207996,-0.448681,-0.439878,-0.573241
76.237987,-1.467353,-0.781891,-0.463487
76.277975,-1.245960,-0.385625,-0.178446
76.307966,-0.704385,-0.117026,-0.033182
76.337957,-0.365667,-0.073205,0.004572
76.377944,-0.407480,-0.237917,0.111206
76.407935,-0.396665,-0.359145,0.174480
76.437926,-0.188283,-0.415159,0.097601
76.477914,-0.070546,-0.080704,-0.000696
76.507905,-0.164397,0.496703,-0.125664
76.537896,-0.152662,0.910025,-0.190373
76.567886,0.106810,0.746144,-0.136868
76.607874,1.134647,-0.464413,-0.051598
76.637865,0.921267,-1.368261,0.125978
76.667856,-0.400082,-1.066337,0.364657
76.707843,-0.386587,0.562976,0.598359
76.737834,0.606025,1.063447,0.654006
76.767825,1.045758,0.417606,0.537571
76.807813,-0.037984,-0.725889,0.450885
76.837804,-0.200883,-0.709467,0.510530
76.867795,0.330977,-0.178965,0.458147
76.907783,0.791602,0.130099,0.263983
76.937773,0.484777,0.000618,0.227368
76.967764,0.221853,-0.020710,0.233081
77.007752,0.354868,0.219248,0.179774
77.037743,0.396792,0.301134,0.143696
77.067734,0.191228,0.277742,0.173829
77.107722,-0.160242,0.244865,0.183257
77.137713,0.035565,0.334449,0.200317
77.167704,0.371323,0.351149,0.126107
77.207691,0.385366,-0.067030,-0.276350
77.237682,-0.448976,-0.067963,-0.563406
77.267673,-0.771984,0.425015,-0.682894
77.307661,0.039687,0.828506,-0.612164
77.337652,0.292619,0.593652,-0.511428
77.367643,-0.128293,0.008566,-0.396976
77.407631,-0.631471,-0.315570,-0.105722
77.437621,-0.410573,-0.115942,0.098767
77.467612,-0.150280,0.099452,0.159111
77.507600,-0.133280,0.073412,0.186244
77.537591,-0.057194,-0.016610,0.231811
77.567582,0.173699,-0.052490,0.306061
77.607570,0.314419,-0.103208,0.361590
77.637561,0.297411,-0.027411,0.326435
77.667551,0.374865,0.199888,0.338824
77.707539,0.312687,0.319470,0.510748
77.737530,0.813645,-0.175301,0.493817
77.767521,1.310587,-0.969736,0.455421
77.807509,0.093142,-0.771099,0.562905
77.837500,-0.120403,0.521519,0.509793
77.867491,0.695400,1.413748,0.618028
77.907478,1.327909,0.735888,0.580434
77.937469,0.716154,-0.445085,0.533571
77.967460,0.055223,-0.908254,0.592013
78.007448,0.387542,-0.438052,0.495843
78.037439,0.903811,-0.017574,0.332244
78.067430,0.853138,0.011762,0.219769
78.107418,0.355207,-0.201665,0.156896
78.137408,0.385998,-0.144276,0.144960
78.167399,0.534045,-0.031112,0.188164
78.207387,0.002341,0.284023,0.346115
78.237378,0.029010,0.615019,0.508118
78.267369,0.556799,0.648374,0.517031
78.307357,0.770635,-0.165560,0.063224
78.337348,-0.332652,-0.392202,-0.164710
78.367338,-0.363822,0.195411,-0.088194
78.407326,0.886586,0.809847,-0.110936
78.437317,1.017746,0.206185,-0.178589
78.467308,0.212351,-0.700938,-0.096727
78.507296,-0.348949,-0.824680,0.081659
78.537287,0.098634,-0.244761,0.119767
78.567281,0.584228,0.321568,0.185636
78.607268,0.477183,0.239067,0.353701
78.637259,0.296675,-0.138796,0.446921
78.667250,0.258803,-0.287414,0.529426
78.707238,0.363979,0.018526,0.674091
78.737229,0.496321,0.313867,0.743960
78.767220,0.787884,0.363602,0.665688
78.807208,0.831429,0.343443,0.442506
78.837198,0.729228,0.538552,0.334910
78.867189,1.193686,0.280109,0.299857
78.907177,2.025994,-0.978244,0.408035
78.937168,0.386615,-0.951906,0.498014
78.967159,-0.537361,-0.088912,0.562402
79.007147,0.636538,0.543398,0.314050
79.037138,1.656723,0.364115,0.331257
79.067128,1.428129,0.065047,0.472569
79.107116,0.361648,-0.041195,0.534681
79.137107,0.650113,0.119029,0.466729
79.167098,1.141734,0.093406,0.448040
79.207086,0.725844,-0.407791,0.446334
79.237077,0.255647,-0.557293,0.245225
79.267068,-0.174702,-0.117713,-0.073061
79.307055,0.111846,0.822453,-0.094751
79.337046,0.612274,0.799282,0.165354
79.367037,0.578133,0.101108,-0.150067
79.407025,-0.460886,-0.645193,-0.561030
79.437016,-0.752331,-0.148232,-0.407720
79.467007,-0.147295,0.539154,-0.251166
79.506994,0.467130,0.614471,-0.310823
79.536985,0.098993,0.098078,-0.219140
79.566973,-0.701844,-0.293959,-0.042475
79.606961,-0.586088,-0.156039,0.185386
79.636952,-0.225151,0.104754,0.342210
79.666943,0.041510,0.130637,0.512959
79.706931,-0.036058,-0.231027,0.560529
79.736921,-0.164751,-0.470697,0.584351
79.766912,-0.086710,-0.466877,0.622176
79.806900,-0.005354,-0.158124,0.421661
79.836891,0.099224,0.252250,0.114497
79.866882,0.313152,0.558331,-0.036688
79.906870,0.384421,0.643167,-0.002636
79.936861,0.305110,0.440495,0.118400
79.966851,0.475592,-0.037315,0.073000
80.006839,0.920215,-0.788879,0.145280
80.038080,0.017655,-0.696175,0.271055
80.078068,-0.222362,0.191906,0.383683
80.108059,0.685186,0.596521,0.301232
80.138050,1.184755,0.324411,0.370896
80.178038,0.454717,-0.563165,0.465623
80.208029,-0.121028,-0.924231,0.258113
80.238020,0.161212,-0.702129,0.025738
80.278007,0.767320,-0.376152,0.034177
80.307998,0.568924,-0.196458,0.158427
80.337989,0.003439,0.119086,0.150123
80.377977,-0.292558,0.633010,0.215268
80.407968,-0.173282,0.751335,0.164561
80.437959,-0.117486,0.562068,-0.067732
80.477947,-0.139225,0.178435,-0.256735
80.507937,-0.008415,-0.032896,-0.292971
80.537928,-0.170901,-0.018916,-0.302546
80.567918,-0.604394,0.340908,-0.302600
80.607906,-0.155062,0.495548,-0.324292
80.637896,0.280296,-0.179968,-0.425002
80.667887,-0.113462,-0.864192,-0.528262
80.707875,-0.856839,-0.309762,-0.618098
80.737866,-0.369712,0.351634,-0.441701
80.767857,0.471249,0.476298,-0.282514
80.807845,0.406567,-0.202280,-0.260818
80.837836,-0.455800,-0.473757,-0.250550
80.867826,-0.566601,-0.101736,-0.094293
80.907814,-0.028266,0.496716,0.036625
80.937805,0.177747,0.474102,0.065005
80.967796,0.213409,0.123051,0.132860
81.007784,0.288735,-0.103716,0.350651
81.037775,0.450830,0.047229,0.513397
81.067765,0.460503,0.215677,0.585478
81.107754,0.735981,0.151546,0.639435
81.137744,1.264322,-0.146325,0.585593
81.167735,1.152655,-0.253845,0.591198
81.207723,1.238106,-0.690599,0.838962
81.237714,1.602047,-1.198416,0.698528
81.267705,1.385745,-1.052875,0.671544
81.307692,0.172861,0.496379,0.833439
81.337683,0.666903,1.299680,0.841385
81.367674,1.807458,1.053861,0.765100
81.407662,1.832617,-0.408692,0.709780
81.437653,0.825921,-1.019441,0.830088
81.467645,0.572164,-0.713698,0.889734
81.507632,1.304164,0.152015,0.728379
81.537622,1.494654,0.347691,0.554962
81.567614,1.309155,0.126396,0.433020
81.607602,1.078358,-0.108371,0.480994
81.637593,1.047477,-0.043068,0.584427
81.667584,0.862217,0.110369,0.794879
81.707572,0.779038,0.160945,0.947054
81.737562,1.109862,-0.110363,0.882582
81.767553,1.070998,-0.372860,0.616786
81.807541,0.583860,-0.097483,0.389807
81.837532,0.750822,0.616774,0.347781
81.867523,1.285784,0.988829,0.447403
81.907511,1.701987,0.360057,0.591106
81.937502,1.373567,-0.329517,0.717528
81.967492,0.933508,-0.531574,0.917119
82.007480,1.339990,-0.238890,1.015728
82.037471,1.733228,-0.005484,0.937972
82.067462,1.983036,-0.029608,0.877613
82.107450,2.006421,-0.211475,0.955618
82.137441,2.048755,-0.268928,1.086387
82.167431,2.169362,-0.215781,1.229222
82.207419,2.110502,-0.039742,1.511167
82.237410,2.179722,0.054971,1.582993
82.267401,2.305861,0.053962,1.524028
82.307389,2.169713,-0.187370,1.433751
82.337380,2.038449,-0.344415,1.386299
82.367370,2.062314,-0.354694,1.345133
82.407358,2.092461,-0.310050,1.296158
82.437349,1.893620,-0.300637,1.307006
82.467340,1.755895,-0.278002,1.267379
82.507328,1.853080,-0.109671,1.218802
82.537319,1.772481,0.025688,1.200925
82.567310,1.540770,0.083866,1.162142
82.607297,1.415040,0.043113,1.152942
82.637288,1.542926,-0.132355,1.190998
82.667279,1.469516,-0.359865,1.188158
82.707267,1.210437,-0.506250,1.075323
82.737258,1.258222,-0.439265,0.983112
82.767249,1.272395,-0.291274,0.867145
82.807236,1.071028,0.038497,0.688194
82.837227,0.830158,0.297608,0.615187
82.867218,0.961353,0.465956,0.598449
82.907206,1.350344,0.137679,0.684727
82.937197,0.982889,-0.112615,0.407473
82.967188,0.448764,-0.152170,0.130064
83.007175,0.632285,0.097932,-0.032452
83.037166,0.933564,0.217995,-0.330616
83.067157,0.596285,0.329340,-0.205821
83.107145,0.358945,0.164396,0.209745
83.137136,0.276833,-0.108748,0.240228
83.167127,0.123289,-0.217948,0.308513
83.207115,-0.089741,-0.136359,0.445785
83.237105,-0.082956,-0.094107,0.393247
83.267096,-0.015987,-0.087806,0.266628
83.307084,0.182778,-0.179541,0.179284
83.337075,0.173606,-0.276436,0.199369
83.367066,0.164265,-0.241510,0.235088
83.407054,0.232108,-0.033804,0.309422
83.437044,0.344734,0.145739,0.342967
83.467035,0.467974,0.237943,0.352686
83.507023,0.536209,0.349289,0.404062
83.537014,0.331213,0.409708,0.498110
83.567004,0.096180,0.394259,0.638272
83.606992,0.561459,-0.006956,0.640645
83.636982,1.001665,-0.615597,0.635846
83.666973,0.020358,-0.602642,0.749805
83.706961,-0.219034,0.198509,0.656658
83.736952,0.603908,0.527535,0.471866
83.766943,1.001752,0.139276,0.268866
83.806931,0.124797,-0.437373,0.171966
83.836921,0.000439,-0.263044,0.070704
83.866912,0.315256,0.047428,0.024391
83.906900,0.569646,0.049880,-0.051422
83.936891,0.304912,-0.107565,-0.012687
83.966882,-0.038954,-0.097405,-0.060452
84.006870,-0.255048,0.187706,-0.197472
84.039360,-0.359054,0.408137,-0.310810
84.069351,-0.319677,0.478635,-0.328422
84.109339,-0.499192,0.451287,-0.302670
84.139330,-0.866218,0.510802,-0.296598
84.169321,-0.893481,0.568334,-0.299920
84.209308,-0.487195,0.243303,-0.623989
84.239299,-0.518250,-0.469723,-0.868559
84.269290,-1.455575,-0.519099,-1.056643
84.309278,-1.145258,0.243081,-1.037872
84.339269,-0.332297,0.608284,-0.984427
84.369260,-0.304551,0.350173,-0.896860
84.409247,-1.323694,-0.215139,-0.783524
84.439238,-1.463365,-0.207877,-0.652656
84.469229,-0.952019,0.072546,-0.460103
84.509217,-0.628769,0.203310,-0.282805
84.539208,-0.762754,-0.028519,-0.215030
84.569198,-0.720599,-0.304611,-0.192568
84.599189,-0.473127,-0.338510,-0.189883
84.629179,-0.321810,-0.160764,-0.190529
84.669167,-0.749476,0.303156,-0.235007
84.699158,-0.813995,0.435613,-0.175364
84.729149,-0.154636,-0.037365,-0.088991
84.769137,0.115222,-1.311447,0.079570
84.799128,-1.377396,-1.180136,0.089103
84.829118,-1.348243,-0.192653,-0.232289
84.869106,0.327770,0.847331,-0.147724
84.899097,0.916376,0.521056,-0.086058
84.929088,0.066359,-0.211579,-0.096697
84.969076,-0.608802,-0.609332,0.000288
84.999067,-0.220131,-0.336906,-0.075411
85.029058,0.167065,0.041257,-0.209202
85.069045,0.192798,0.260009,-0.240568
85.099036,-0.133041,0.269582,-0.242209
85.129027,-0.283702,0.229373,-0.309457
85.169015,-0.482995,0.288755,-0.396532
85.199006,-0.750495,0.392756,-0.445477
85.228997,-0.971240,0.558746,-0.638910
85.268984,-0.320066,0.419002,-0.723750
85.298975,-0.085436,-0.044921,-0.886422
85.328966,-0.963735,-0.183719,-1.065730
85.368954,-1.543573,0.522228,-0.903966
85.398945,-0.739788,0.772060,-0.713778
85.428936,-0.267618,0.464114,-0.628530
85.468923,-1.053869,-0.413629,-0.698983
85.498914,-1.468376,-0.634321,-0.676593
85.528905,-1.127015,-0.421616,-0.547476
85.568893,-0.557229,-0.043958,-0.403190
85.598884,-0.573427,0.013766,-0.273067
85.628875,-0.650238,-0.012078,-0.126727
85.668862,-0.456646,-0.004330,0.164049
85.698853,-0.446617,-0.016612,0.208701
85.728844,-0.539132,0.182345,0.109241
85.768832,-0.627792,0.559941,0.057285
85.798823,-0.038671,0.400347,-0.013781
85.828814,0.987334,-0.355765,0.092482
85.868801,-0.568062,-0.376755,0.168217
85.898792,-0.854402,0.345415,0.019596
85.928783,0.328246,0.856859,0.008013
85.968771,0.848448,0.236344,0.160561
85.998762,-0.093647,-0.464601,0.180613
86.028753,-0.306816,-0.586495,0.252558
86.068740,0.304190,-0.257002,0.172795
86.098731,0.492009,-0.092234,-0.011167
86.128722,0.382334,-0.071165,-0.059599
86.168710,-0.015138,0.014900,0.090387
86.198701,-0.000494,0.163151,0.107291
86.228692,0.006706,0.160079,0.068290
86.268680,-0.313033,0.165530,-0.075682
86.298670,-0.745167,0.437352,-0.223314
86.328661,-0.469340,0.695037,-0.164035
86.368649,-0.005624,0.290235,-0.353246
86.398640,-0.690964,-0.206618,-0.658984
86.428631,-1.135071,0.047848,-0.656117
86.468619,-0.473222,0.829881,-0.469920
86.498609,0.008837,0.718426,-0.273765
86.528600,-0.323424,-0.051219,-0.150405
86.568588,-1.133915,-0.704716,-0.195880
86.598579,-0.790926,-0.463321,-0.220040
86.628570,-0.219602,-0.020234,-0.136157
86.668558,-0.052093,0.168608,0.095018
86.698548,-0.219397,-0.063077,0.177626
86.728539,-0.070158,-0.253661,0.256281
86.768527,0.163260,-0.251943,0.333307
86.798518,0.248769,-0.172365,0.234160
86.828509,0.092890,0.120202,-0.039024
86.868497,-0.121631,0.666916,-0.151193
86.898487,0.123493,0.640325,-0.041461
86.928478,1.014359,-0.098269,0.003176
86.968466,0.008796,-0.848080,-0.036556
86.998457,-1.185050,0.057648,0.232718
87.028448,-0.517467,1.150580,0.480631
87.068436,0.930055,1.013422,0.606263
87.098426,0.656743,-0.370682,0.423231
87.128417,-0.307258,-1.351536,0.212581
87.168405,-0.290331,-0.974525,0.148910
87.198396,0.310756,-0.114155,0.127883
87.238384,0.486347,0.349159,-0.041353
87.268375,0.192145,0.042766,-0.121225
87.298365,-0.005010,-0.256047,-0.236040
87.338353,-0.232668,-0.056192,-0.325430
87.368344,-0.572715,0.494421,-0.099187
87.398335,-0.595591,0.842908,0.128092
87.428326,0.085266,0.427835,0.308115
87.468314,0.052841,-0.691775,-0.043206
87.498304,-0.937098,-0.677104,-0.393501
87.538292,-0.714467,0.645808,-0.575676
87.568283,0.342060,1.249562,-0.500075
87.598274,0.689044,0.729859,-0.485565
87.628265,-0.079645,-0.251802,-0.517160
87.668253,-0.961465,-0.653233,-0.521247
87.698243,-0.483130,-0.190229,-0.399823
87.738231,0.156693,0.372192,-0.083563
87.768222,-0.042070,0.237846,0.113992
87.798213,-0.132913,-0.102588,0.279768
87.828204,-0.061967,-0.278025,0.427190
87.868192,0.124633,-0.390348,0.513110
87.898182,0.089974,-0.272816,0.419977
87.938170,-0.211668,0.147913,0.279612
87.968161,0.041031,0.237951,0.182588
87.998152,0.867220,-0.193106,0.186808
88.043140,0.547568,-0.937783,0.319000
88.073131,-0.354763,-0.182159,0.300576
88.103122,-0.215538,0.881200,0.481462
88.143110,0.886500,0.971040,0.483965
88.173100,0.760996,-0.055607,0.297726
88.203091,-0.106971,-0.714105,0.276434
88.243079,-0.100988,-0.259900,0.264725
88.273070,0.555662,0.109212,0.107611
88.303061,0.768616,0.031163,-0.116833
88.343049,0.270191,-0.310936,-0.124447
88.373039,0.021324,-0.271982,-0.091548
88.403030,0.159105,-0.087877,-0.099942
88.443018,-0.189324,0.184437,-0.049259
88.473009,-0.526914,0.528946,0.019150
88.503000,-0.121333,0.574117,0.107430
88.542988,0.295585,-0.024017,-0.280461
88.562980,-0.019294,-0.383320,-0.566411
88.602968,-0.675694,0.123771,-0.685581
88.632959,-0.089607,0.743759,-0.481488
88.662949,0.569511,0.552594,-0.398232
88.702937,-0.067906,-0.599080,-0.473779
88.732928,-0.700883,-0.864064,-0.503753
88.762919,-0.533757,-0.388367,-0.405581
88.802907,0.032586,0.113515,-0.212069
88.832898,0.055982,-0.006473,-0.064003
88.862888,-0.095650,-0.260817,0.084926
88.902876,-0.196558,-0.396433,0.299038
88.932867,0.015342,-0.235445,0.496232
88.962858,0.137690,-0.087264,0.532464
89.002846,-0.054574,0.154199,0.342343
89.032837,-0.536117,0.365290,0.255552
89.062827,-0.207707,0.338048,0.135686
89.102815,1.233942,-0.719190,0.161139
89.132806,0.251657,-1.129332,0.276650
89.162797,-0.685746,-0.030973,0.288852
89.202785,0.214300,1.463306,0.487919
89.232775,0.980709,1.011163,0.505346
89.272763,0.272290,-0.471256,0.263831
89.302754,-0.139285,-0.568119,0.246825
89.332745,0.234823,0.002362,0.211401
89.362736,0.644616,0.259149,0.048012
89.402724,0.377014,-0.110928,-0.028371
89.432714,0.052331,-0.188429,0.052897
89.472702,0.182474,0.067792,0.063724
89.502693,0.011669,0.071188,0.036041
89.532684,-0.356528,0.036228,0.031974
89.572675,-0.243730,0.310773,0.106267
89.602666,0.122435,0.287081,0.126837
89.632656,0.281222,-0.160868,-0.162425
89.662647,-0.384456,-0.544980,-0.492772
89.702635,-0.538281,0.090713,-0.570681
89.732626,0.085416,0.635170,-0.465957
89.772614,0.039379,0.170769,-0.319651
89.802605,-0.645839,-0.441819,-0.271099
89.832595,-0.907962,-0.485126,-0.279215
89.872583,-0.422386,0.048265,-0.221121
89.902574,-0.241068,0.209302,-0.063089
89.932565,-0.346746,0.084811,0.060392
89.972553,-0.346587,0.015599,0.160096
90.002544,-0.136885,0.113368,0.276473
90.032534,0.123798,0.099148,0.328936
90.072522,0.148697,-0.068250,0.231595
90.102513,-0.364725,0.045777,0.163201
90.132504,-0.217067,0.141746,0.054714
90.172492,0.965554,-0.523540,-0.069219
90.202482,0.380433,-0.952612,0.089752
90.232473,-0.608191,-0.118676,0.039236
90.272461,0.165053,1.193267,0.202016
90.302452,0.793065,0.836049,0.276756
90.332443,0.260107,-0.218028,0.196474
90.372431,-0.435013,-0.505424,0.143437
90.402421,0.059702,0.000766,0.115324
90.432412,0.568078,0.239706,-0.054668
90.472400,0.339991,-0.145592,-0.320247
90.502391,0.039399,-0.288769,-0.313653
90.532382,0.058514,-0.130957,-0.287820
90.572366,0.035882,0.027259,-0.231549
90.602357,-0.387024,0.112479,-0.126252
90.632348,-0.820352,0.406319,-0.111324
90.672336,-0.202304,0.573377,0.050866
90.702327,0.273252,0.073740,-0.120535
90.732318,-0.367938,-0.445337,-0.463587
90.772305,-1.081309,0.114592,-0.739493
90.802296,-0.276328,0.694012,-0.684525
90.832287,0.346828,0.442800,-0.601003
90.872275,-0.637444,-0.440169,-0.631884
90.902266,-1.189329,-0.554672,-0.654489
90.932257,-0.715348,-0.138388,-0.524797
90.972244,-0.294149,0.305753,-0.262466
91.002235,-0.448201,0.212027,-0.072680
91.032226,-0.478068,-0.004680,0.106413
91.072214,-0.287571,-0.186963,0.335107
91.102205,-0.203489,-0.286186,0.335151
91.132196,-0.231300,-0.182823,0.234505
91.172183,-0.486384,0.203830,0.232925
91.202174,0.170379,0.019536,0.154840
91.232165,1.076926,-0.857617,-0.012285
91.272153,-0.070320,-1.383453,0.187782
91.302144,-0.908257,-0.120685,0.269291
91.332134,0.008028,1.206752,0.179943
91.372122,1.137793,1.032786,0.223747
91.402113,0.494813,-0.200659,0.117336
91.432104,-0.394804,-0.707125,0.070258
91.472092,0.037440,-0.114926,0.085859
91.502082,0.591620,0.280354,-0.011514
91.532073,0.609088,0.099965,-0.161840
91.572061,-0.021131,-0.258504,-0.108883
91.602052,-0.035441,-0.112852,-0.039570
91.632043,0.021332,0.084009,-0.009188
91.672031,-0.603378,0.318687,0.019396
91.702021,-0.557048,0.607404,0.086279
91.732012,-0.120554,0.633334,0.063727
91.772000,0.232735,-0.445067,-0.269754
91.801991,-0.731348,-0.801375,-0.625512
91.831982,-0.690482,-0.137987,-0.621745
91.871970,0.350023,0.507291,-0.481031
91.901960,0.017607,0.119511,-0.464425
91.931951,-0.789140,-0.353797,-0.515240
91.971939,-0.791092,-0.129602,-0.485352
92.001930,-0.379213,0.211806,-0.277785
92.043169,-0.361637,0.187956,-0.027945
92.073160,-0.335741,0.012368,0.135004
92.103150,-0.209824,-0.046160,0.329152
92.143138,-0.080168,-0.045073,0.365145
92.173129,0.023434,0.018295,0.267754
92.203120,0.021303,0.088840,0.197490
92.243108,-0.081954,0.038911,0.313686
92.273099,0.720227,-0.514324,0.242653
92.303089,0.980924,-1.354584,0.172544
92.343077,-0.531000,-0.512094,0.314653
92.373068,-0.152545,1.096769,0.276361
92.403059,0.738662,1.638990,0.294526
92.443047,0.823560,0.080900,0.223868
92.473037,-0.109816,-0.875127,0.142137
92.503028,-0.265718,-0.643965,0.198578
92.543016,0.429522,0.065598,0.187157
92.573006,0.609869,0.058273,0.025762
92.602997,0.254957,-0.239594,-0.073517
92.632987,0.015540,-0.339190,-0.131424
92.672975,-0.063193,0.075580,-0.192908
92.702966,-0.338130,0.456591,-0.089898
92.732957,-0.073001,0.507627,0.071820
92.772945,-0.028874,-0.046347,0.030769
92.802935,-0.222851,-0.531502,-0.410437
92.832926,-0.584059,-0.435767,-0.680543
92.872914,-0.211029,0.606922,-0.591644
92.902905,0.246032,0.762529,-0.470253
92.932896,0.120581,0.153969,-0.469770
92.972884,-0.824661,-0.414569,-0.446427
93.002874,-0.811033,-0.127663,-0.315073
93.032865,-0.302940,0.346164,-0.198175
93.072853,-0.147221,0.383928,-0.003624
93.102844,-0.041135,0.052976,0.161904
93.132835,0.086388,-0.154071,0.337478
93.172822,0.131340,0.007927,0.427103
93.202813,-0.125403,0.301306,0.355421
93.232804,-0.145762,0.470776,0.481129
93.272792,0.687381,-0.025767,0.129686
93.302783,1.354584,-1.269636,-0.195413
93.332774,0.250135,-1.616713,-0.047874
93.372761,0.017149,0.173738,0.122074
93.402752,0.993209,1.123618,0.353860
93.432743,1.290303,0.518707,0.571145
93.472731,0.255667,-0.688501,0.726098
93.502722,0.029784,-0.340172,0.876696
93.532712,0.433682,0.375901,0.813181
93.572700,0.738949,0.350061,0.444083
93.602691,0.526392,-0.133635,0.083124
93.632682,0.296020,-0.275296,-0.059309
93.672670,0.400860,0.086816,-0.124755
93.702661,0.375794,0.232649,-0.020557
93.732651,-0.020890,0.207136,0.199165
93.772639,-0.280881,0.232200,0.201026
93.802630,-0.036703,0.042489,0.082461
93.832621,0.194669,-0.492172,-0.346647
93.872609,-0.177556,-0.835548,-0.823400
93.902599,-0.336350,-0.171729,-0.857931
93.932590,-0.232894,0.817308,-0.599509
93.972578,-0.129111,0.934939,-0.220453
94.002569,-0.315766,0.169303,-0.185160
94.032560,-0.599160,-0.506929,-0.272954
94.072547,-0.833288,-0.338328,-0.243032
94.102538,-0.707736,0.117833,-0.159214
94.132529,-0.524475,0.198139,-0.084141
94.172517,-0.490634,-0.157785,-0.000895
94.202508,-0.531387,-0.210564,0.060256
94.232499,-0.364718,0.084352,0.076732
94.272486,0.010026,0.338282,0.190611
94.302477,-0.108738,0.286101,0.233744
94.332468,-0.310742,0.362076,0.160779
94.372456,0.350105,0.275784,-0.163234
94.402447,1.238063,-0.603158,-0.272215
94.432437,0.531609,-1.338707,-0.129932
94.472425,-0.128719,-0.402552,0.096217
94.502416,0.784039,0.521366,0.360633
94.532407,1.187269,0.286881,0.493624
94.572394,-0.012698,-0.634655,0.417089
94.602385,0.038014,-0.532964,0.321091
94.632375,0.541491,-0.056307,0.220165
94.672363,0.549876,0.133788,0.231370
94.702354,0.445130,-0.018293,0.156050
94.732345,0.243508,-0.006123,0.081054
94.772333,0.375627,0.245204,0.189039
94.802323,0.337524,0.375475,0.293906
94.832314,0.203911,0.390636,0.369642
94.872302,0.086959,0.447254,0.344154
94.902293,0.312462,0.629425,0.242292
94.932284,0.965060,0.504504,0.354113
94.972271,1.299835,-0.640281,0.411176
95.002262,0.596333,-1.227183,0.263578
95.032253,0.094236,-0.538327,0.141295
95.072241,0.718455,0.927124,0.310894
95.102232,1.348940,1.062540,0.303294
95.132223,1.201367,0.229122,0.233769
95.172210,0.372109,-0.592358,0.383797
95.202201,0.484650,-0.277634,0.625374
95.232192,0.971165,0.171216,0.727592
95.272180,1.496955,0.112427,0.722484
95.302170,1.597766,-0.354179,0.747115
95.332161,1.573397,-0.616224,0.787194
95.372149,1.667441,-0.254110,0.948227
95.402140,1.737001,0.189434,1.161013
95.432131,2.002486,0.268706,1.240196
95.472119,2.166788,-0.096400,1.220538
95.502109,2.076784,-0.267122,1.215462
95.532100,2.122830,-0.336580,1.223447
95.572092,2.257073,-0.344770,1.337968
95.602083,2.207663,-0.385180,1.383001
95.632074,1.965365,-0.422019,1.352943
95.672061,1.752993,-0.356167,1.276708
95.702052,1.748818,-0.286585,1.193512
95.732043,1.743645,-0.212803,1.126077
95.772031,1.711358,0.000173,1.151186
95.802022,1.697163,0.247795,1.230201
95.832013,1.570669,0.399879,1.306919
95.872000,1.422326,0.281415,1.406899
95.901991,1.354710,0.092336,1.407362
95.931982,1.346401,-0.080555,1.306729
95.971970,1.385476,-0.215830,1.115583
96.001961,1.293760,-0.270369,0.935951
96.031951,1.346588,-0.255108,0.745006
96.075689,1.375571,0.034415,0.770646
96.105680,1.346813,0.238679,0.981183
96.135671,1.530867,0.277613,1.249822
96.175659,1.369886,0.090736,1.317503
96.205649,1.314357,0.039951,1.155261
96.235640,1.674767,-0.000838,0.874992
96.275628,1.885057,-0.168931,0.357706
96.305619,1.558751,-0.183222,0.125940
96.335610,1.212527,0.089560,0.049850
96.375597,1.216372,0.458457,0.357185
96.405588,1.104268,0.353288,0.662754
96.435579,0.720211,-0.026853,0.662430
96.475567,0.561744,-0.264619,0.628897
96.505558,0.632486,-0.199412,0.636650
96.535548,0.684951,-0.122796,0.579573
96.566786,0.686304,-0.115318,0.556889
96.596777,0.693557,-0.118253,0.573150
96.626768,0.713932,-0.084405,0.593282
96.666756,0.669968,-0.002924,0.582861
96.696747,0.611906,-0.025540,0.559494
96.726737,0.601263,-0.061542,0.504798
96.766725,0.627664,-0.047862,0.454266
96.796716,0.651707,0.007326,0.401951
96.826707,0.733929,0.113341,0.378873
96.866695,0.796525,0.268221,0.482437
96.896685,0.546015,0.417591,0.538181
96.926676,0.363826,0.478499,0.686917
96.966664,0.906576,0.013434,0.620320
96.996655,0.934792,-0.717892,0.787339
97.026646,-0.015718,-0.604786,0.930362
97.066633,0.070157,0.435819,0.744449
97.096624,0.884414,0.682836,0.561166
97.126615,1.246839,-0.070032,0.369690
97.166603,0.168102,-0.960388,0.188952
97.196594,0.048105,-0.564602,0.077132
97.226584,0.405699,0.111458,0.176168
97.266572,0.334366,0.233981,0.179621
97.296563,-0.105314,0.041807,0.078644
97.326554,-0.330784,0.094928,-0.020706
97.366542,-0.088815,0.409143,-0.033326
97.396532,-0.327278,0.451086,-0.059183
97.426523,-0.375205,0.333847,-0.156548
97.466511,0.106470,-0.352099,-0.274500
97.496502,-0.016889,-1.122581,-0.542157
97.526493,-0.505591,-1.352646,-0.948362
97.566480,-0.823470,0.012681,-1.028585
97.596472,-0.361283,0.927694,-0.584358
97.626463,-0.245938,0.802240,-0.312511
97.666451,-0.900268,-0.117935,-0.321045
97.696442,-1.236004,-0.310660,-0.424611
97.726433,-1.051116,0.064676,-0.444934
97.766420,-0.612101,0.463281,-0.249915
97.796411,-0.443663,0.256751,-0.095640
97.826402,-0.330215,-0.186837,0.023299
97.866390,-0.258087,-0.410531,0.130898
97.896381,-0.113854,-0.194920,0.182555
97.926371,-0.000136,0.119381,0.175217
97.966359,0.020208,0.412743,-0.076512
97.996350,-0.058459,0.439171,-0.107224
98.026341,0.183381,0.177239,-0.269595
98.066329,0.686291,-0.538106,-0.114132
98.096319,0.013472,-0.454559,0.285909
98.126310,-0.524445,0.319403,0.495041
98.166298,0.049458,0.904584,0.514365
98.196289,0.600185,0.328007,0.335440
98.236277,0.171026,-0.869895,0.142746
98.266267,0.038063,-0.893317,0.076408
98.296258,0.263163,-0.351190,-0.030352
98.326249,0.552824,0.059632,-0.014580
98.366237,0.351230,0.200698,-0.006669
98.396228,0.058873,0.248825,0.020703
98.426219,-0.014169,0.321362,0.038242
98.466206,-0.042566,0.277585,0.023376
98.496197,-0.504992,0.275376,-0.059210
98.526188,-0.548897,0.427431,-0.269347
98.566176,0.242577,0.226848,-0.436721
98.596187,0.271088,-0.397574,-0.696638
98.626177,-0.657106,-0.509457,-0.950449
98.666165,-0.785677,0.853262,-0.744537
98.696156,-0.129638,1.405714,-0.371549
98.726147,-0.020111,0.817006,-0.228601
98.766135,-0.595728,-0.424985,-0.353795
98.796125,-0.752969,-0.685962,-0.365817
98.826116,-0.420768,-0.372174,-0.244702
98.866104,-0.189589,0.081054,-0.024503
98.896095,-0.153031,0.053339,0.018359
98.936082,-0.145530,-0.108982,0.117710
98.966073,0.008661,-0.074070,0.221109
98.996064,0.320319,0.030746,0.347663
99.026055,0.448704,0.107965,0.478044
99.066043,-0.031819,0.213581,0.527004
99.096034,0.680476,-0.271771,0.287606
99.136021,0.739902,-1.011585,0.133848
99.166012,-0.676210,-0.080636,0.229679
99.196003,-0.297013,0.907319,0.365182
99.225994,0.718998,0.916577,0.516756
99.265982,0.511251,-0.274874,0.401298
99.295972,-0.220564,-0.671640,0.218917
99.335960,-0.069848,0.049254,0.128410
99.365951,0.317231,0.499820,0.130374
99.395942,0.257924,0.384361,0.071860
99.435930,0.006642,-0.062498,0.007766
99.465920,-0.076893,-0.172077,-0.007732
99.495911,-0.037535,-0.173537,-0.041115
99.535899,-0.279769,0.000813,-0.051626
99.565890,-0.325868,0.209372,0.045055
99.595856,0.142686,0.120217,0.170342
99.635844,0.653682,-0.517733,-0.254508
99.665834,0.596342,-0.479315,-0.561665
99.695825,0.108601,0.390570,-0.533435
99.725816,0.354693,0.886661,-0.105411
99.765804,0.809091,0.413444,0.109090
99.795795,0.374132,-0.133350,0.038561
99.835782,-0.206377,-0.161176,-0.079295
99.865773,0.089705,0.204831,0.042430
99.895764,0.293385,0.335895,0.259195
99.935752,0.256991,0.074044,0.417739
99.965743,0.111162,-0.101764,0.500414
99.995733,0.120805,-0.092667,0.557353
100.035721,0.303323,0.033729,0.609679
100.068214,0.370532,0.145391,0.508673
100.108202,0.370165,0.161048,0.320902
100.138193,0.015959,0.224537,0.264998
100.178180,0.015031,0.136316,0.016569
100.208171,0.983011,-0.503741,-0.070656
100.238162,1.243214,-1.160990,0.144345
100.268153,0.111294,-0.817302,0.393344
100.308141,-0.071837,0.656653,0.585005
100.338131,0.971958,1.093891,0.506754
100.378119,1.267946,0.097791,0.515212
100.408110,0.427580,-0.685267,0.604716
100.438101,0.265029,-0.649751,0.669100
100.478089,0.840890,-0.109696,0.459370
100.508079,1.063824,0.129997,0.239065
100.538070,0.833748,0.133653,0.066352
100.578058,0.504934,0.091370,-0.018601
100.598051,0.512132,0.119933,0.003111
100.628041,0.463686,0.202807,0.070445
100.668029,-0.007947,0.387587,0.140268
100.698020,-0.138224,0.717510,0.141940
100.728011,0.379413,0.641508,0.239580
100.767999,0.631540,-0.626200,-0.021327
100.797989,-0.684127,-0.914907,-0.306198
100.827980,-0.983946,0.031044,-0.362944
100.867968,0.181486,0.973319,-0.412176
100.897959,-0.001619,0.574560,-0.475164
100.927950,-0.863413,-0.142290,-0.503998
100.967937,-1.005133,-0.310114,-0.410084
100.997928,-0.615604,-0.032509,-0.315865
101.027919,-0.347907,0.094523,-0.213808
101.067907,-0.444086,0.008599,-0.017385
101.097898,-0.333098,-0.045853,0.192351
101.127888,-0.171990,-0.053810,0.349053
101.167876,-0.093466,0.162074,0.515079
101.197867,0.078331,0.367544,0.561530
101.227858,0.141490,0.471731,0.467679
101.267846,0.496879,0.284169,0.248098
101.297836,1.567660,-0.744761,0.132164
101.327827,1.442148,-2.186463,0.158634
101.367815,-0.416635,-1.596268,0.213452
101.397806,-0.293189,0.130122,0.176978
101.427797,0.938497,0.863269,0.132815
101.467784,0.627940,-0.154192,0.115676
101.497775,-0.323747,-0.590925,0.195856
101.527766,-0.112466,-0.043433,0.234824
101.567754,0.651432,0.593627,0.149967
101.597749,0.697127,0.320657,0.095017
101.627740,0.333586,-0.103093,0.063406
101.667727,0.188106,-0.167628,0.030050
101.697718,0.433921,-0.055524,0.020102
101.727709,0.157815,0.085013,-0.036243
101.767697,-0.251955,0.676605,-0.159653
101.797687,0.223962,0.896104,-0.158776
101.827678,0.691543,0.365120,-0.289785
101.867666,-0.283539,-0.489073,-0.385754
101.897657,-1.241543,0.015097,-0.452937
101.927648,-0.728196,0.780367,-0.438861
101.967635,-0.047274,0.789094,-0.585808
101.997626,-0.554911,0.187630,-0.615988
102.027617,-1.090318,-0.096225,-0.566986
102.067605,-0.662952,0.183456,-0.369696
102.097596,-0.299242,0.242309,-0.173716
102.127586,-0.295854,-0.013628,-0.025225
102.167574,-0.243552,-0.286440,0.224920
102.197565,-0.075167,-0.362925,0.423099
102.227556,0.147506,-0.468347,0.510619
102.267544,0.213850,-0.415950,0.514282
102.297534,-0.087293,-0.004920,0.447094
102.327525,-0.286654,0.532750,0.309554
102.367513,1.052529,0.021029,0.215077
102.397504,1.580995,-1.438871,0.313869
102.427495,0.104476,-1.663988,0.212542
102.467482,-0.125227,0.309575,0.103798
102.497473,1.224582,1.219805,0.178226
102.527464,1.553095,0.526130,0.301779
102.567452,0.071130,-0.549216,0.453190
102.597442,-0.100004,-0.221612,0.504485
102.627432,0.574783,0.283009,0.400112
102.667420,0.795695,0.145739,0.157671
102.697411,0.407194,-0.169346,-0.008048
102.727402,0.189496,-0.078196,-0.145730
102.767390,0.321909,0.224466,-0.184158
102.797380,0.063224,0.392468,-0.173208
102.827371,-0.620930,0.670066,-0.216485
102.867359,-0.250472,1.031691,-0.047933
102.897350,0.287536,0.657697,-0.082692
102.927341,0.115459,-0.353114,-0.170529
102.967328,-1.178112,-0.487527,-0.357909
102.997319,-0.698473,0.354101,-0.415550
103.027310,-0.071694,0.815314,-0.583934
103.067298,-0.408123,0.329827,-0.520073
103.097289,-1.024789,-0.111913,-0.370439
103.127280,-0.989878,-0.216189,-0.266058
103.167267,-0.606477,0.029998,-0.128771
103.197258,-0.591338,0.075442,-0.031760
103.227249,-0.613412,-0.010832,0.117304
103.267237,-0.600683,-0.067819,0.298644
103.297228,-0.550030,-0.075249,0.275565
103.327218,-0.619930,0.052749,0.076223
103.367206,-0.709188,0.587093,-0.233001
103.397197,-0.628848,1.029766,-0.458136
103.437185,1.151756,0.115242,-0.778616
103.467176,0.789109,-1.191522,-0.452566
103.497166,-1.060706,-1.209674,-0.176429
103.527157,-1.050453,-0.201634,-0.226903
103.567145,0.911116,0.591453,-0.136044
103.597132,0.795186,0.014976,0.004541
103.627123,-0.496134,-0.730523,0.123334
103.667110,-0.492534,-0.761699,0.214214
103.697101,0.021501,-0.451452,0.084644
103.737089,0.176245,-0.182831,-0.179553
103.767080,0.065798,-0.056491,-0.186624
103.797071,0.014574,0.039202,-0.184539
103.827062,-0.010072,0.049827,-0.115629
103.867049,-0.290831,0.123878,0.098940
103.897041,-0.627927,0.276442,0.088845
103.927031,-0.710527,0.510491,-0.069869
103.967019,0.117331,0.337130,-0.172744
103.997010,0.359586,-0.306338,-0.490205
104.036997,-0.592109,-0.768470,-0.826109
104.076987,-0.763831,0.222841,-0.737949
104.106978,-0.222445,0.740842,-0.422352
104.136969,-0.071200,0.335900,-0.193273
104.176957,-0.816750,-0.759934,-0.229809
104.206948,-1.204305,-0.911858,-0.302546
104.236938,-0.914889,-0.508022,-0.219636
104.276926,-0.468703,-0.198983,-0.053053
104.306917,-0.513624,-0.323713,0.034104
104.336908,-0.632538,-0.487078,0.123055
104.376896,-0.604668,-0.423410,0.183599
104.406886,-0.394985,-0.108416,0.162129
104.436877,-0.280287,0.269510,0.155633
104.476866,-0.128139,0.540610,0.123153
104.506856,0.016739,0.484051,0.099356
104.536847,0.062925,0.324850,0.060750
